Channel1	Channel2	Channel3	Channel4	Channel5	Channel6	Channel7	Channel8	FilteredChannel1	FilteredChannel2	FilteredChannel3	FilteredChannel4	FilteredChannel5	FilteredChannel6	FilteredChannel7	FilteredChannel8	GyroX	GyroY	GyroZ	AccX	AccY	AccZ	PPG1	PPG2	rawPPG1	rawPPG2	rawPPG3	Hr	Hrv	Battery	Trigger	PhysicalTrigger	AutoTrigger	NumMeasurements	Timestamp
-5541.705000	-8246.610000	4248.540000	-1691.820000	-24541.515000	-18132.840000	-2569.950000	8127.810000	-9.433999	-5.602930	-7.672074	-9.377967	-10.430267	-12.586937	-13.574991	-0.525371	0.289940	3.357200	-1.556520	0.715757	0.007263	0.661680	-1.000000	-1.000000	-1.000000	-1.000000	-1.000000	-1.000000	-1.000000	85.379310	0.000000	-1.000000	-1.000000	597489.000000	1772894906.663873
-5543.865000	-8258.040000	4241.160000	-1697.265000	-24544.305000	-18135.765000	-2581.470000	8122.455000	-13.856948	-6.172700	-8.428035	-10.028885	-10.359483	-10.890603	-12.301303	0.044310	0.289940	3.357200	-1.556520	0.715757	0.007263	0.661680	-1.000000	-1.000000	-1.000000	-1.000000	-1.000000	-1.000000	-1.000000	85.379310	0.000000	-1.000000	-1.000000	597490.000000	1772894906.663883
-5540.040000	-8260.605000	4240.575000	-1697.715000	-24545.340000	-18138.375000	-2587.455000	8116.425000	-11.838386	-3.763926	-5.005797	-5.611783	-5.049441	-4.621148	-7.818344	-0.034360	3.418240	3.525060	-1.632820	0.717222	0.009033	0.660155	-1.000000	-1.000000	-1.000000	-1.000000	-1.000000	-1.000000	-1.000000	85.379310	0.000000	-1.000000	-1.000000	597491.000000	1772894906.667534
-5539.005000	-8268.120000	4240.080000	-1696.545000	-24543.405000	-18137.295000	-2588.175000	8103.150000	-5.005240	-0.218914	0.699764	1.435593	2.695777	3.226541	-2.454004	-0.480595	3.418240	3.525060	-1.632820	0.717222	0.009033	0.660155	-1.000000	-1.000000	-1.000000	-1.000000	-1.000000	-1.000000	-1.000000	85.379310	0.000000	-1.000000	-1.000000	597492.000000	1772894906.667544
-5542.110000	-8249.985000	4258.710000	-1676.340000	-24522.570000	-18118.170000	-2577.015000	8100.360000	3.051964	3.077718	6.524081	8.315243	9.786589	9.869555	2.185720	-0.755594	3.418240	3.525060	-1.632820	0.717222	0.009033	0.660155	-1.000000	-1.000000	-1.000000	-1.000000	-1.000000	-1.000000	-1.000000	85.379310	0.000000	-1.000000	-1.000000	597493.000000	1772894906.671391
-5568.075000	-8229.195000	4278.780000	-1654.875000	-24502.770000	-18102.105000	-2573.010000	8104.230000	8.466217	5.813200	10.729680	12.903215	14.062050	13.639974	5.651829	-0.337764	3.418240	3.525060	-1.632820	0.717222	0.009033	0.660155	-1.000000	-1.000000	-1.000000	-1.000000	-1.000000	-1.000000	-1.000000	85.379310	0.000000	-1.000000	-1.000000	597494.000000	1772894906.671408
-5556.870000	-8222.580000	4284.855000	-1651.230000	-24500.745000	-18102.555000	-2575.980000	8108.955000	9.179601	7.893213	12.065394	13.886037	14.407806	13.829144	8.208495	0.965930	3.418240	3.525060	-1.632820	0.717222	0.009033	0.660155	-1.000000	-1.000000	-1.000000	-1.000000	-1.000000	-1.000000	-1.000000	85.379310	0.000000	-1.000000	-1.000000	597495.000000	1772894906.675243
-5539.410000	-8237.700000	4265.325000	-1672.470000	-24523.155000	-18122.670000	-2585.520000	8115.480000	7.089053	8.313519	9.832588	10.702096	10.488287	10.148895	9.481749	2.548690	3.418240	3.525060	-1.632820	0.717222	0.009033	0.660155	-1.000000	-1.000000	-1.000000	-1.000000	-1.000000	-1.000000	-1.000000	85.379310	0.000000	-1.000000	-1.000000	597496.000000	1772894906.675251
-5543.640000	-8260.605000	4231.710000	-1709.505000	-24559.875000	-18154.575000	-2599.380000	8126.010000	5.488056	5.146937	3.399288	2.919979	2.042191	2.175776	7.901096	3.387795	3.418240	3.525060	-1.632820	0.717222	0.009033	0.660155	-1.000000	-1.000000	-1.000000	-1.000000	-1.000000	-1.000000	-1.000000	85.379310	0.000000	-1.000000	-1.000000	597497.000000	1772894906.679297
-5534.010000	-8248.275000	4244.355000	-1696.095000	-24546.420000	-18139.860000	-2574.090000	8130.285000	4.540973	-2.068172	-6.548202	-8.410345	-9.683103	-8.913583	3.122083	3.090832	3.418240	3.525060	-1.632820	0.717222	0.009033	0.660155	-1.000000	-1.000000	-1.000000	-1.000000	-1.000000	-1.000000	-1.000000	85.379310	0.000000	-1.000000	-1.000000	597498.000000	1772894906.679305
-5525.370000	-8250.615000	4248.000000	-1691.685000	-24541.920000	-18135.585000	-2569.590000	8125.335000	2.567585	-9.757710	-15.474402	-18.154421	-19.390457	-17.945975	-1.856163	2.005748	3.418240	3.525060	-1.632820	0.717222	0.009033	0.660155	-1.000000	-1.000000	-1.000000	-1.000000	-1.000000	-1.000000	-1.000000	85.379310	0.000000	-1.000000	-1.000000	597499.000000	1772894906.683481
-5535.270000	-8261.730000	4238.370000	-1699.875000	-24547.455000	-18144.405000	-2582.820000	8114.220000	-0.830726	-12.979245	-17.696445	-20.125987	-20.867779	-19.102202	-3.947186	0.468049	3.418240	3.525060	-1.632820	0.717222	0.009033	0.660155	-1.000000	-1.000000	-1.000000	-1.000000	-1.000000	-1.000000	-1.000000	85.379310	0.000000	-1.000000	-1.000000	597500.000000	1772894906.683488
-5544.180000	-8268.975000	4231.395000	-1706.895000	-24554.520000	-18152.685000	-2591.190000	8112.015000	-4.978384	-10.359231	-12.151960	-13.314633	-13.238753	-11.899805	-3.781674	-1.245079	2.105880	3.082520	-3.021480	0.716307	0.010437	0.654356	-1.000000	-1.000000	-1.000000	-1.000000	-1.000000	-1.000000	-1.000000	85.379310	0.000000	-1.000000	-1.000000	597501.000000	1772894906.687195
-5541.165000	-8257.995000	4245.075000	-1693.755000	-24543.495000	-18141.210000	-2582.415000	8115.435000	-8.361020	-4.395096	-2.777706	-2.325958	-1.477409	-1.187182	-3.655168	-2.529103	2.105880	3.082520	-3.021480	0.716307	0.010437	0.654356	-1.000000	-1.000000	-1.000000	-1.000000	-1.000000	-1.000000	-1.000000	85.379310	0.000000	-1.000000	-1.000000	597502.000000	1772894906.687204
-5541.030000	-8262.810000	4237.920000	-1700.370000	-24547.500000	-18142.560000	-2589.120000	8122.860000	-8.734883	1.446609	5.432766	7.065305	8.284167	7.636507	-3.947211	-2.791931	2.105880	3.082520	-3.021480	0.716307	0.010437	0.654356	-1.000000	-1.000000	-1.000000	-1.000000	-1.000000	-1.000000	-1.000000	85.379310	0.000000	-1.000000	-1.000000	597503.000000	1772894906.691171
-5547.600000	-8280.990000	4216.995000	-1722.105000	-24567.795000	-18160.155000	-2603.880000	8126.730000	-5.492598	4.843460	9.346507	11.393284	12.600420	11.783920	-3.596296	-2.047511	2.105880	3.082520	-3.021480	0.716307	0.010437	0.654356	-1.000000	-1.000000	-1.000000	-1.000000	-1.000000	-1.000000	-1.000000	85.379310	0.000000	-1.000000	-1.000000	597504.000000	1772894906.691178
-5543.865000	-8273.295000	4226.040000	-1711.845000	-24559.110000	-18153.090000	-2596.455000	8132.400000	-0.840787	5.653117	9.039558	10.858969	11.822450	11.424670	-2.019180	-0.979003	2.105880	3.082520	-3.021480	0.716307	0.010437	0.654356	-1.000000	-1.000000	-1.000000	-1.000000	-1.000000	-1.000000	-1.000000	85.379310	0.000000	-1.000000	-1.000000	597505.000000	1772894906.696685
-5537.520000	-8270.370000	4227.840000	-1710.045000	-24557.985000	-18150.255000	-2585.430000	8137.800000	2.681290	5.510570	7.164157	8.394666	8.834342	8.666385	0.735104	-0.325519	2.105880	3.082520	-3.021480	0.716307	0.010437	0.654356	-1.000000	-1.000000	-1.000000	-1.000000	-1.000000	-1.000000	-1.000000	85.379310	0.000000	-1.000000	-1.000000	597506.000000	1772894906.696694
-5525.865000	-8263.035000	4234.905000	-1702.170000	-24550.335000	-18142.515000	-2572.380000	8137.440000	4.247974	5.532245	5.620879	6.111717	5.746547	5.267362	3.890173	-0.168374	2.105880	3.082520	-3.021480	0.716307	0.010437	0.654356	-1.000000	-1.000000	-1.000000	-1.000000	-1.000000	-1.000000	-1.000000	85.379310	0.000000	-1.000000	-1.000000	597507.000000	1772894906.699361
-5519.115000	-8252.505000	4249.710000	-1685.250000	-24532.470000	-18127.305000	-2563.965000	8126.865000	4.321826	5.477495	4.272148	4.004930	2.848248	1.884971	6.127910	-0.094458	2.105880	3.082520	-3.021480	0.716307	0.010437	0.654356	-1.000000	-1.000000	-1.000000	-1.000000	-1.000000	-1.000000	-1.000000	85.379310	0.000000	-1.000000	-1.000000	597508.000000	1772894906.699372
-5542.470000	-8253.495000	4251.510000	-1683.270000	-24530.130000	-18128.475000	-2569.095000	8117.010000	3.428884	4.973278	2.868063	1.996983	0.451784	-0.709059	6.606677	0.102645	2.105880	3.082520	-3.021480	0.716307	0.010437	0.654356	-1.000000	-1.000000	-1.000000	-1.000000	-1.000000	-1.000000	-1.000000	85.379310	0.000000	-1.000000	-1.000000	597509.000000	1772894906.703483
-5554.440000	-8247.105000	4254.525000	-1684.260000	-24535.125000	-18140.580000	-2592.540000	8107.740000	1.426855	3.576296	1.238982	0.015329	-1.373859	-2.392088	4.610870	0.157831	2.105880	3.082520	-3.021480	0.716307	0.010437	0.654356	-1.000000	-1.000000	-1.000000	-1.000000	-1.000000	-1.000000	-1.000000	85.379310	0.000000	-1.000000	-1.000000	597510.000000	1772894906.703490
-5536.485000	-8237.385000	4266.855000	-1671.075000	-24522.300000	-18128.565000	-2597.040000	8111.385000	-1.236278	0.722162	-1.228076	-2.600152	-3.456175	-4.220770	-0.360861	-0.255273	-2.426340	2.472120	-3.341940	0.714720	0.013550	0.656248	-1.000000	-1.000000	-1.000000	-1.000000	-1.000000	-1.000000	-1.000000	85.379310	0.000000	-1.000000	-1.000000	597511.000000	1772894906.707362
-5535.900000	-8244.090000	4260.915000	-1674.495000	-24522.705000	-18124.695000	-2596.815000	8118.810000	-2.621582	-3.099706	-4.214420	-5.437024	-5.598391	-6.017344	-6.368392	-0.823959	-2.426340	2.472120	-3.341940	0.714720	0.013550	0.656248	-1.000000	-1.000000	-1.000000	-1.000000	-1.000000	-1.000000	-1.000000	85.379310	0.000000	-1.000000	-1.000000	597512.000000	1772894906.707368
-5534.595000	-8251.290000	4252.320000	-1682.145000	-24528.645000	-18127.395000	-2586.420000	8123.805000	-1.594579	-6.275812	-6.233854	-6.809732	-6.215568	-5.948711	-9.263555	-0.759467	-2.426340	2.472120	-3.341940	0.714720	0.013550	0.656248	-1.000000	-1.000000	-1.000000	-1.000000	-1.000000	-1.000000	-1.000000	85.379310	0.000000	-1.000000	-1.000000	597513.000000	1772894906.711268
-5540.175000	-8265.420000	4239.315000	-1695.195000	-24541.515000	-18136.890000	-2579.310000	8128.620000	0.507539	-7.749043	-6.584493	-6.171436	-4.881830	-3.571142	-6.740430	0.173397	-2.426340	2.472120	-3.341940	0.714720	0.013550	0.656248	-1.000000	-1.000000	-1.000000	-1.000000	-1.000000	-1.000000	-1.000000	85.379310	0.000000	-1.000000	-1.000000	597514.000000	1772894906.711277
-5556.105000	-8273.025000	4233.510000	-1700.955000	-24548.625000	-18147.375000	-2590.695000	8128.170000	1.205884	-7.842656	-6.037189	-4.833679	-3.188493	-0.979774	-1.015214	1.362725	-2.426340	2.472120	-3.341940	0.714720	0.013550	0.656248	-1.000000	-1.000000	-1.000000	-1.000000	-1.000000	-1.000000	-1.000000	85.379310	0.000000	-1.000000	-1.000000	597515.000000	1772894906.715190
-5558.805000	-8257.590000	4249.620000	-1685.970000	-24536.565000	-18138.420000	-2589.795000	8123.535000	-0.880851	-6.829186	-5.131750	-3.819241	-2.479483	-0.239692	3.293867	2.077181	-2.426340	2.472120	-3.341940	0.714720	0.013550	0.656248	-1.000000	-1.000000	-1.000000	-1.000000	-1.000000	-1.000000	-1.000000	85.379310	0.000000	-1.000000	-1.000000	597516.000000	1772894906.715196
-5555.070000	-8249.715000	4253.895000	-1682.460000	-24531.615000	-18131.535000	-2581.065000	8118.180000	-4.203534	-3.906033	-3.159277	-2.508217	-2.153356	-0.899474	3.923752	2.140877	-2.426340	2.472120	-3.341940	0.714720	0.013550	0.656248	-1.000000	-1.000000	-1.000000	-1.000000	-1.000000	-1.000000	-1.000000	85.379310	0.000000	-1.000000	-1.000000	597517.000000	1772894906.720680
-5540.175000	-8256.690000	4240.305000	-1697.850000	-24544.935000	-18140.895000	-2584.485000	8111.925000	-4.850701	1.031321	0.152787	-0.240382	-1.005365	-0.954255	2.536497	1.813355	-2.426340	2.472120	-3.341940	0.714720	0.013550	0.656248	-1.000000	-1.000000	-1.000000	-1.000000	-1.000000	-1.000000	-1.000000	85.379310	0.000000	-1.000000	-1.000000	597518.000000	1772894906.720687
-5534.505000	-8253.045000	4243.410000	-1696.140000	-24545.520000	-18140.985000	-2582.820000	8112.465000	-0.567716	5.777165	3.254126	2.079516	0.815558	0.408300	1.714185	1.223554	-2.426340	2.472120	-3.341940	0.714720	0.013550	0.656248	-1.000000	-1.000000	-1.000000	-1.000000	-1.000000	-1.000000	-1.000000	85.379310	0.000000	-1.000000	-1.000000	597519.000000	1772894906.723244
-5535.450000	-8257.095000	4238.910000	-1701.810000	-24553.665000	-18148.995000	-2588.265000	8112.960000	6.014209	7.657747	4.440818	3.153935	2.169680	2.080672	2.140575	0.226154	-2.426340	2.472120	-3.341940	0.714720	0.013550	0.656248	-1.000000	-1.000000	-1.000000	-1.000000	-1.000000	-1.000000	-1.000000	85.379310	0.000000	-1.000000	-1.000000	597520.000000	1772894906.723248
-5521.320000	-8256.825000	4240.575000	-1696.995000	-24545.745000	-18142.380000	-2590.335000	8115.345000	9.957637	6.289421	3.938207	3.156024	2.716934	2.831891	2.607006	-1.232298	-3.891300	2.411080	-2.533160	0.718260	0.012878	0.660643	-1.000000	-1.000000	-1.000000	-1.000000	-1.000000	-1.000000	-1.000000	85.379310	0.000000	-1.000000	-1.000000	597521.000000	1772894906.727305
-5502.330000	-8242.425000	4258.575000	-1675.440000	-24519.465000	-18118.350000	-2578.455000	8118.900000	9.173998	3.720150	3.588550	3.703495	3.724234	3.165484	1.810387	-2.716060	-3.891300	2.411080	-2.533160	0.718260	0.012878	0.660643	-1.000000	-1.000000	-1.000000	-1.000000	-1.000000	-1.000000	-1.000000	85.379310	0.000000	-1.000000	-1.000000	597522.000000	1772894906.727313
-5490.405000	-8218.935000	4282.425000	-1653.570000	-24497.865000	-18099.945000	-2573.595000	8117.235000	5.339821	2.521403	4.990290	6.090103	6.564584	4.614712	-0.108063	-3.467651	-3.891300	2.411080	-2.533160	0.718260	0.012878	0.660643	-1.000000	-1.000000	-1.000000	-1.000000	-1.000000	-1.000000	-1.000000	85.379310	0.000000	-1.000000	-1.000000	597523.000000	1772894906.731279
-5517.675000	-8228.295000	4272.930000	-1664.370000	-24507.360000	-18102.420000	-2568.240000	8112.825000	0.592472	3.206933	7.310534	8.960529	9.882505	6.899174	-1.863235	-3.026597	-3.891300	2.411080	-2.533160	0.718260	0.012878	0.660643	-1.000000	-1.000000	-1.000000	-1.000000	-1.000000	-1.000000	-1.000000	85.379310	0.000000	-1.000000	-1.000000	597524.000000	1772894906.731336
-5533.425000	-8217.270000	4287.915000	-1649.430000	-24495.210000	-18085.950000	-2540.565000	8108.685000	-4.749804	3.322441	7.243991	8.615618	9.715610	7.304262	-2.184461	-1.452900	-3.891300	2.411080	-2.533160	0.718260	0.012878	0.660643	-1.000000	-1.000000	-1.000000	-1.000000	-1.000000	-1.000000	-1.000000	85.379310	0.000000	-1.000000	-1.000000	597525.000000	1772894906.735277
-5524.830000	-8214.615000	4290.390000	-1646.460000	-24490.350000	-18080.415000	-2534.715000	8101.755000	-10.159580	0.702237	2.970819	3.432046	4.169587	4.034589	-0.615504	0.765796	-3.891300	2.411080	-2.533160	0.718260	0.012878	0.660643	-1.000000	-1.000000	-1.000000	-1.000000	-1.000000	-1.000000	-1.000000	85.379310	0.000000	-1.000000	-1.000000	597526.000000	1772894906.735294
-5518.755000	-8248.185000	4256.910000	-1677.240000	-24519.690000	-18115.155000	-2562.435000	8101.665000	-12.962813	-4.159253	-3.901937	-4.315985	-4.373611	-2.024872	1.466373	2.791692	-3.891300	2.411080	-2.533160	0.718260	0.012878	0.660643	-1.000000	-1.000000	-1.000000	-1.000000	-1.000000	-1.000000	-1.000000	85.379310	0.000000	-1.000000	-1.000000	597527.000000	1772894906.739227
-5523.615000	-8282.250000	4220.145000	-1715.445000	-24559.470000	-18156.150000	-2581.920000	8105.715000	-10.953857	-9.964668	-11.241275	-11.943975	-12.705769	-9.429009	1.224006	3.806044	-3.891300	2.411080	-2.533160	0.718260	0.012878	0.660643	-1.000000	-1.000000	-1.000000	-1.000000	-1.000000	-1.000000	-1.000000	85.379310	0.000000	-1.000000	-1.000000	597528.000000	1772894906.739233
-5532.345000	-8254.620000	4247.055000	-1688.535000	-24537.420000	-18146.205000	-2580.615000	8113.230000	-5.180424	-14.398304	-16.566501	-17.040183	-18.109213	-16.089747	-2.272012	3.513040	-3.891300	2.411080	-2.533160	0.718260	0.012878	0.660643	-1.000000	-1.000000	-1.000000	-1.000000	-1.000000	-1.000000	-1.000000	85.379310	0.000000	-1.000000	-1.000000	597529.000000	1772894906.743249
-5543.685000	-8225.145000	4283.010000	-1651.365000	-24501.960000	-18118.395000	-2584.935000	8119.530000	0.894281	-12.965645	-15.399497	-15.633506	-16.861366	-17.653834	-6.395286	2.248449	-3.891300	2.411080	-2.533160	0.718260	0.012878	0.660643	-1.000000	-1.000000	-1.000000	-1.000000	-1.000000	-1.000000	-1.000000	85.379310	0.000000	-1.000000	-1.000000	597530.000000	1772894906.743257
-5527.530000	-8228.655000	4276.350000	-1657.845000	-24505.515000	-18115.065000	-2586.465000	8126.910000	4.395521	-3.851473	-5.875305	-6.176722	-7.600151	-11.091792	-8.017850	0.670761	-1.846460	4.455920	-1.800680	0.723448	0.011658	0.662291	-1.000000	-1.000000	-1.000000	-1.000000	-1.000000	-1.000000	-1.000000	85.379310	0.000000	-1.000000	-1.000000	597531.000000	1772894906.747213
-5533.335000	-8247.420000	4255.380000	-1680.615000	-24525.855000	-18131.805000	-2593.080000	8124.930000	5.383154	7.707824	6.487844	5.936062	4.663859	0.614766	-6.224056	-0.622297	-1.846460	4.455920	-1.800680	0.723448	0.011658	0.662291	-1.000000	-1.000000	-1.000000	-1.000000	-1.000000	-1.000000	-1.000000	85.379310	0.000000	-1.000000	-1.000000	597532.000000	1772894906.747217
-5542.515000	-8251.155000	4249.935000	-1686.240000	-24531.975000	-18136.890000	-2587.500000	8119.035000	5.757935	14.035945	13.468342	12.787038	12.422140	10.565038	-2.080453	-1.412316	-1.846460	4.455920	-1.800680	0.723448	0.011658	0.662291	-1.000000	-1.000000	-1.000000	-1.000000	-1.000000	-1.000000	-1.000000	85.379310	0.000000	-1.000000	-1.000000	597533.000000	1772894906.751284
-5528.880000	-8263.845000	4237.605000	-1697.040000	-24541.560000	-18144.045000	-2578.680000	8116.920000	6.594751	11.961934	11.663332	11.162801	12.198974	13.772125	2.466568	-1.798647	-1.846460	4.455920	-1.800680	0.723448	0.011658	0.662291	-1.000000	-1.000000	-1.000000	-1.000000	-1.000000	-1.000000	-1.000000	85.379310	0.000000	-1.000000	-1.000000	597534.000000	1772894906.751298
-5542.425000	-8284.860000	4226.085000	-1706.220000	-24549.570000	-18152.820000	-2584.980000	8108.235000	7.094137	4.008193	3.988587	3.986341	6.150936	10.298287	5.920479	-1.891522	-1.846460	4.455920	-1.800680	0.723448	0.011658	0.662291	-1.000000	-1.000000	-1.000000	-1.000000	-1.000000	-1.000000	-1.000000	85.379310	0.000000	-1.000000	-1.000000	597535.000000	1772894906.755114
-5562.045000	-8266.455000	4243.860000	-1692.090000	-24539.445000	-18145.305000	-2585.070000	8109.720000	5.169343	-3.819549	-2.967310	-2.386963	-0.032756	4.671676	8.052281	-1.849714	-1.846460	4.455920	-1.800680	0.723448	0.011658	0.662291	-1.000000	-1.000000	-1.000000	-1.000000	-1.000000	-1.000000	-1.000000	85.379310	0.000000	-1.000000	-1.000000	597536.000000	1772894906.755122
-5546.340000	-8252.730000	4246.380000	-1690.830000	-24540.435000	-18149.130000	-2608.290000	8120.835000	0.302581	-5.622493	-3.644695	-2.812818	-1.344458	1.944559	8.794648	-1.696426	-1.846460	4.455920	-1.800680	0.723448	0.011658	0.662291	-1.000000	-1.000000	-1.000000	-1.000000	-1.000000	-1.000000	-1.000000	85.379310	0.000000	-1.000000	-1.000000	597537.000000	1772894906.759282
-5525.235000	-8239.050000	4250.655000	-1688.040000	-24536.385000	-18142.740000	-2610.225000	8124.075000	-4.237292	-0.809840	1.203081	1.724464	1.771356	2.722325	7.118850	-1.154100	-1.846460	4.455920	-1.800680	0.723448	0.011658	0.662291	-1.000000	-1.000000	-1.000000	-1.000000	-1.000000	-1.000000	-1.000000	85.379310	0.000000	-1.000000	-1.000000	597538.000000	1772894906.759290
-5531.490000	-8260.110000	4232.025000	-1707.120000	-24554.880000	-18157.770000	-2612.025000	8128.170000	-4.939811	4.903459	5.194804	5.011855	3.934104	3.042896	2.657061	-0.244158	-1.846460	4.455920	-1.800680	0.723448	0.011658	0.662291	-1.000000	-1.000000	-1.000000	-1.000000	-1.000000	-1.000000	-1.000000	85.379310	0.000000	-1.000000	-1.000000	597539.000000	1772894906.763169
-5530.545000	-8253.720000	4238.595000	-1700.865000	-24547.635000	-18146.340000	-2587.770000	8125.425000	-2.551487	5.751874	3.778294	2.954381	1.486578	-0.091639	-2.416586	0.526418	-1.846460	4.455920	-1.800680	0.723448	0.011658	0.662291	-1.000000	-1.000000	-1.000000	-1.000000	-1.000000	-1.000000	-1.000000	85.379310	0.000000	-1.000000	-1.000000	597540.000000	1772894906.763173
-5518.845000	-8252.595000	4238.415000	-1700.820000	-24545.745000	-18142.560000	-2573.640000	8125.785000	0.110619	1.770798	-1.107465	-2.026421	-3.232571	-4.737171	-4.730170	0.864071	0.106820	5.493600	-2.731540	0.721678	0.007874	0.660155	-1.000000	-1.000000	-1.000000	-1.000000	-1.000000	-1.000000	-1.000000	85.379310	0.000000	-1.000000	-1.000000	597541.000000	1772894906.767274
-5524.920000	-8263.665000	4231.890000	-1707.390000	-24552.315000	-18151.695000	-2583.900000	8118.135000	1.837637	-3.071016	-4.790229	-5.141557	-5.693962	-7.076439	-3.489949	0.959293	0.106820	5.493600	-2.731540	0.721678	0.007874	0.660155	-1.000000	-1.000000	-1.000000	-1.000000	-1.000000	-1.000000	-1.000000	85.379310	0.000000	-1.000000	-1.000000	597542.000000	1772894906.767295
-5523.885000	-8255.655000	4240.710000	-1700.190000	-24546.690000	-18150.840000	-2581.245000	8116.740000	2.146411	-5.610375	-4.929028	-4.474477	-4.342332	-5.999410	-1.428016	1.020170	0.106820	5.493600	-2.731540	0.721678	0.007874	0.660155	-1.000000	-1.000000	-1.000000	-1.000000	-1.000000	-1.000000	-1.000000	85.379310	0.000000	-1.000000	-1.000000	597543.000000	1772894906.771096
-5540.130000	-8250.255000	4247.235000	-1693.215000	-24541.065000	-18149.985000	-2579.310000	8115.255000	0.622040	-4.514958	-1.762692	-0.846220	-0.398531	-2.647342	-0.760817	1.078975	0.106820	5.493600	-2.731540	0.721678	0.007874	0.660155	-1.000000	-1.000000	-1.000000	-1.000000	-1.000000	-1.000000	-1.000000	85.379310	0.000000	-1.000000	-1.000000	597544.000000	1772894906.771104
-5532.255000	-8234.415000	4265.685000	-1673.190000	-24521.760000	-18131.805000	-2581.155000	8114.085000	-1.876809	-0.421605	2.971180	3.875020	4.221266	1.678375	-0.875864	0.931680	0.106820	5.493600	-2.731540	0.721678	0.007874	0.660155	-1.000000	-1.000000	-1.000000	-1.000000	-1.000000	-1.000000	-1.000000	85.379310	0.000000	-1.000000	-1.000000	597545.000000	1772894906.775119
-5520.465000	-8252.550000	4250.385000	-1684.665000	-24529.995000	-18133.290000	-2586.780000	8114.535000	-3.651531	3.455877	6.314863	7.092298	7.301770	5.535908	-0.506457	0.127711	0.106820	5.493600	-2.731540	0.721678	0.007874	0.660155	-1.000000	-1.000000	-1.000000	-1.000000	-1.000000	-1.000000	-1.000000	85.379310	0.000000	-1.000000	-1.000000	597546.000000	1772894906.775127
-5496.390000	-8267.670000	4239.945000	-1692.090000	-24534.540000	-18129.555000	-2573.145000	8119.935000	-3.437392	3.277731	5.321847	6.159657	6.533237	6.919867	0.495926	-1.266382	0.106820	5.493600	-2.731540	0.721678	0.007874	0.660155	-1.000000	-1.000000	-1.000000	-1.000000	-1.000000	-1.000000	-1.000000	85.379310	0.000000	-1.000000	-1.000000	597547.000000	1772894906.779144
-5489.685000	-8256.915000	4256.055000	-1674.270000	-24517.395000	-18111.600000	-2556.945000	8123.130000	-0.943355	-1.168757	0.113400	1.098273	1.808844	4.900611	1.590007	-2.270125	0.106820	5.493600	-2.731540	0.721678	0.007874	0.660155	-1.000000	-1.000000	-1.000000	-1.000000	-1.000000	-1.000000	-1.000000	85.379310	0.000000	-1.000000	-1.000000	597548.000000	1772894906.779152
-5510.610000	-8221.545000	4285.980000	-1649.115000	-24495.030000	-18093.870000	-2547.720000	8117.955000	2.283543	-5.192526	-4.907940	-4.091099	-3.380519	1.178700	2.042076	-1.987736	0.106820	5.493600	-2.731540	0.721678	0.007874	0.660155	-1.000000	-1.000000	-1.000000	-1.000000	-1.000000	-1.000000	-1.000000	85.379310	0.000000	-1.000000	-1.000000	597549.000000	1772894906.783163
-5542.245000	-8206.605000	4294.395000	-1645.830000	-24493.680000	-18098.865000	-2564.235000	8101.350000	2.976457	-3.924111	-5.268119	-5.336990	-5.312387	-1.858982	0.888803	-0.731273	0.106820	5.493600	-2.731540	0.721678	0.007874	0.660155	-1.000000	-1.000000	-1.000000	-1.000000	-1.000000	-1.000000	-1.000000	85.379310	0.000000	-1.000000	-1.000000	597550.000000	1772894906.783167
-5546.115000	-8241.885000	4257.135000	-1684.845000	-24534.540000	-18143.640000	-2594.205000	8092.080000	-0.568657	1.928670	-1.607365	-3.193916	-4.274042	-4.055563	-2.514602	0.300222	-1.190280	5.569900	-2.792580	0.719908	0.007385	0.661253	-1.000000	-1.000000	-1.000000	-1.000000	-1.000000	-1.000000	-1.000000	85.379310	0.000000	-1.000000	-1.000000	597551.000000	1772894906.787176
-5543.055000	-8245.260000	4254.255000	-1686.105000	-24535.890000	-18145.710000	-2582.505000	8092.665000	-5.607782	6.508240	1.139925	-1.767393	-3.648080	-6.759297	-7.000083	0.520880	-1.190280	5.569900	-2.792580	0.719908	0.007385	0.661253	-1.000000	-1.000000	-1.000000	-1.000000	-1.000000	-1.000000	-1.000000	85.379310	0.000000	-1.000000	-1.000000	597552.000000	1772894906.787181
-5524.380000	-8238.195000	4258.305000	-1682.685000	-24531.660000	-18141.210000	-2576.745000	8090.010000	-6.980246	5.502822	-0.118533	-3.169436	-4.911272	-9.330629	-9.084235	0.448567	-1.190280	5.569900	-2.792580	0.719908	0.007385	0.661253	-1.000000	-1.000000	-1.000000	-1.000000	-1.000000	-1.000000	-1.000000	85.379310	0.000000	-1.000000	-1.000000	597553.000000	1772894906.791203
-5520.780000	-8248.365000	4248.585000	-1690.470000	-24538.365000	-18144.405000	-2579.895000	8104.050000	-2.434004	0.011879	-3.804611	-5.592504	-6.179901	-9.211934	-5.954196	0.801047	-1.190280	5.569900	-2.792580	0.719908	0.007385	0.661253	-1.000000	-1.000000	-1.000000	-1.000000	-1.000000	-1.000000	-1.000000	85.379310	0.000000	-1.000000	-1.000000	597554.000000	1772894906.791211
-5508.765000	-8225.235000	4277.115000	-1659.240000	-24506.190000	-18114.795000	-2572.290000	8109.135000	4.808515	-5.518858	-6.017789	-5.799801	-4.853216	-4.993082	1.272694	1.830949	-1.190280	5.569900	-2.792580	0.719908	0.007385	0.661253	-1.000000	-1.000000	-1.000000	-1.000000	-1.000000	-1.000000	-1.000000	85.379310	0.000000	-1.000000	-1.000000	597555.000000	1772894906.795315
-5509.890000	-8223.570000	4278.870000	-1656.990000	-24502.050000	-18109.980000	-2574.675000	8109.135000	9.337480	-6.682182	-3.647893	-1.673896	0.285535	2.448972	8.255534	2.940538	-1.190280	5.569900	-2.792580	0.719908	0.007385	0.661253	-1.000000	-1.000000	-1.000000	-1.000000	-1.000000	-1.000000	-1.000000	85.379310	0.000000	-1.000000	-1.000000	597556.000000	1772894906.795319
-5521.995000	-8243.415000	4257.585000	-1677.105000	-24519.330000	-18124.920000	-2586.645000	8108.505000	8.298466	-3.240591	1.992662	4.769804	6.816874	9.465271	10.445360	2.989514	-1.190280	5.569900	-2.792580	0.719908	0.007385	0.661253	-1.000000	-1.000000	-1.000000	-1.000000	-1.000000	-1.000000	-1.000000	85.379310	0.000000	-1.000000	-1.000000	597557.000000	1772894906.799407
-5537.025000	-8257.725000	4247.730000	-1687.140000	-24528.735000	-18134.055000	-2586.195000	8106.210000	3.001673	0.043403	5.409969	7.985182	9.467103	11.253223	6.385579	1.674953	-1.190280	5.569900	-2.792580	0.719908	0.007385	0.661253	-1.000000	-1.000000	-1.000000	-1.000000	-1.000000	-1.000000	-1.000000	85.379310	0.000000	-1.000000	-1.000000	597558.000000	1772894906.799414
-5551.335000	-8255.385000	4250.520000	-1685.880000	-24531.345000	-18137.655000	-2570.490000	8097.570000	-2.787122	-0.303708	3.710880	5.483368	6.143449	6.927766	-0.263819	-0.085870	-1.190280	5.569900	-2.792580	0.719908	0.007385	0.661253	-1.000000	-1.000000	-1.000000	-1.000000	-1.000000	-1.000000	-1.000000	85.379310	0.000000	-1.000000	-1.000000	597559.000000	1772894906.803669
-5548.095000	-8244.720000	4261.860000	-1674.495000	-24519.915000	-18126.990000	-2556.945000	8087.760000	-5.962621	-1.785120	0.310711	1.031414	0.774783	1.100528	-3.520401	-1.459480	-1.190280	5.569900	-2.792580	0.719908	0.007385	0.661253	-1.000000	-1.000000	-1.000000	-1.000000	-1.000000	-1.000000	-1.000000	85.379310	0.000000	-1.000000	-1.000000	597560.000000	1772894906.803678
-5531.580000	-8227.485000	4279.905000	-1653.300000	-24497.415000	-18105.930000	-2555.100000	8085.015000	-5.468943	-0.101451	0.009644	-0.341463	-1.419863	-1.126178	-1.303091	-2.444876	-1.876980	5.524120	-5.447820	0.720091	0.009582	0.664305	-1.000000	-1.000000	-1.000000	-1.000000	-1.000000	-1.000000	-1.000000	85.379310	0.000000	-1.000000	-1.000000	597561.000000	1772894906.816098
-5508.855000	-8221.275000	4281.570000	-1652.670000	-24496.155000	-18103.860000	-2562.345000	8097.615000	-1.850037	4.912031	3.273488	2.101442	0.625577	0.840413	2.843042	-3.014523	-1.876980	5.524120	-5.447820	0.720091	0.009582	0.664305	-1.000000	-1.000000	-1.000000	-1.000000	-1.000000	-1.000000	-1.000000	85.379310	0.000000	-1.000000	-1.000000	597562.000000	1772894906.816113
-5502.330000	-8230.725000	4265.010000	-1672.380000	-24516.000000	-18121.815000	-2571.660000	8104.005000	2.910177	9.343842	6.339500	4.685714	3.356083	3.155809	4.257025	-2.683366	-1.876980	5.524120	-5.447820	0.720091	0.009582	0.664305	-1.000000	-1.000000	-1.000000	-1.000000	-1.000000	-1.000000	-1.000000	85.379310	0.000000	-1.000000	-1.000000	597563.000000	1772894906.816123
-5526.720000	-8234.865000	4265.010000	-1672.020000	-24516.585000	-18121.455000	-2559.645000	8097.255000	5.498483	9.092117	5.165788	3.218647	2.327193	1.505665	1.459617	-1.494578	-1.876980	5.524120	-5.447820	0.720091	0.009582	0.664305	-1.000000	-1.000000	-1.000000	-1.000000	-1.000000	-1.000000	-1.000000	85.379310	0.000000	-1.000000	-1.000000	597564.000000	1772894906.816128
-5523.525000	-8222.580000	4281.975000	-1652.130000	-24495.750000	-18101.340000	-2542.005000	8099.190000	3.493276	3.673747	-0.253958	-2.219486	-2.715750	-4.043997	-3.087526	-0.266306	-1.876980	5.524120	-5.447820	0.720091	0.009582	0.664305	-1.000000	-1.000000	-1.000000	-1.000000	-1.000000	-1.000000	-1.000000	85.379310	0.000000	-1.000000	-1.000000	597565.000000	1772894906.816133
-5509.215000	-8228.070000	4275.360000	-1659.195000	-24502.095000	-18108.270000	-2547.270000	8100.990000	-1.201691	-3.192601	-5.650058	-7.010660	-7.248979	-8.772252	-5.651964	0.559672	-1.876980	5.524120	-5.447820	0.720091	0.009582	0.664305	-1.000000	-1.000000	-1.000000	-1.000000	-1.000000	-1.000000	-1.000000	85.379310	0.000000	-1.000000	-1.000000	597566.000000	1772894906.816138
-5506.560000	-8234.325000	4264.920000	-1670.805000	-24512.715000	-18117.540000	-2547.090000	8102.250000	-3.616180	-7.473070	-7.473876	-7.595645	-7.547926	-8.835121	-4.971883	1.358643	-1.876980	5.524120	-5.447820	0.720091	0.009582	0.664305	-1.000000	-1.000000	-1.000000	-1.000000	-1.000000	-1.000000	-1.000000	85.379310	0.000000	-1.000000	-1.000000	597567.000000	1772894906.819308
-5522.580000	-8247.105000	4253.670000	-1681.020000	-24522.210000	-18126.945000	-2543.580000	8098.650000	-1.668464	-8.070082	-5.969650	-4.718927	-4.166768	-4.695355	-2.575400	2.461171	-1.876980	5.524120	-5.447820	0.720091	0.009582	0.664305	-1.000000	-1.000000	-1.000000	-1.000000	-1.000000	-1.000000	-1.000000	85.379310	0.000000	-1.000000	-1.000000	597568.000000	1772894906.819338
-5525.595000	-8231.760000	4276.125000	-1657.440000	-24502.815000	-18112.725000	-2537.280000	8104.410000	1.588325	-6.114234	-3.077715	-0.940474	0.178491	0.684398	-0.372058	3.522185	-1.876980	5.524120	-5.447820	0.720091	0.009582	0.664305	-1.000000	-1.000000	-1.000000	-1.000000	-1.000000	-1.000000	-1.000000	85.379310	0.000000	-1.000000	-1.000000	597569.000000	1772894906.823153
-5508.495000	-8209.800000	4302.045000	-1631.025000	-24479.190000	-18094.815000	-2548.170000	8110.710000	2.235528	-2.814188	0.240762	2.395055	3.590676	4.721484	0.692521	3.803370	-1.876980	5.524120	-5.447820	0.720091	0.009582	0.664305	-1.000000	-1.000000	-1.000000	-1.000000	-1.000000	-1.000000	-1.000000	85.379310	0.000000	-1.000000	-1.000000	597570.000000	1772894906.823172
-5487.930000	-8210.970000	4295.250000	-1639.440000	-24488.325000	-18109.170000	-2582.190000	8111.070000	-0.124404	1.171814	3.811580	5.150647	5.628978	6.383894	0.288737	2.548792	-3.723440	5.264700	-4.471180	0.719664	0.008789	0.666624	-1.000000	-1.000000	-1.000000	-1.000000	-1.000000	-1.000000	-1.000000	85.379310	0.000000	-1.000000	-1.000000	597571.000000	1772894906.827239
-5493.960000	-8228.565000	4276.080000	-1658.205000	-24504.705000	-18122.085000	-2591.280000	8109.450000	-2.897675	4.510033	6.268244	6.397221	5.825410	5.405980	-1.637064	-0.445191	-3.723440	5.264700	-4.471180	0.719664	0.008789	0.666624	-1.000000	-1.000000	-1.000000	-1.000000	-1.000000	-1.000000	-1.000000	85.379310	0.000000	-1.000000	-1.000000	597572.000000	1772894906.827246
-5516.370000	-8253.720000	4248.630000	-1687.230000	-24529.275000	-18130.815000	-2570.760000	8109.810000	-3.998111	4.861088	5.002921	4.053384	2.963175	1.789825	-3.877452	-3.988978	-3.723440	5.264700	-4.471180	0.719664	0.008789	0.666624	-1.000000	-1.000000	-1.000000	-1.000000	-1.000000	-1.000000	-1.000000	85.379310	0.000000	-1.000000	-1.000000	597573.000000	1772894906.831178
-5524.560000	-8259.435000	4238.595000	-1700.775000	-24543.270000	-18142.425000	-2569.185000	8109.495000	-3.676411	1.195998	-0.819825	-2.451522	-3.101564	-3.373566	-3.959382	-6.093270	-3.723440	5.264700	-4.471180	0.719664	0.008789	0.666624	-1.000000	-1.000000	-1.000000	-1.000000	-1.000000	-1.000000	-1.000000	85.379310	0.000000	-1.000000	-1.000000	597574.000000	1772894906.831186
-5532.075000	-8247.825000	4250.475000	-1689.030000	-24533.190000	-18138.105000	-2572.740000	8101.620000	-3.066533	-3.826859	-7.636277	-9.482212	-9.188785	-7.349238	-0.715910	-5.741702	-3.723440	5.264700	-4.471180	0.719664	0.008789	0.666624	-1.000000	-1.000000	-1.000000	-1.000000	-1.000000	-1.000000	-1.000000	85.379310	0.000000	-1.000000	-1.000000	597575.000000	1772894906.845575
-5532.705000	-8252.505000	4250.025000	-1687.275000	-24529.095000	-18135.720000	-2575.395000	8084.835000	-2.155217	-5.621220	-9.673570	-11.105729	-10.154559	-6.956361	4.141991	-3.621855	-3.723440	5.264700	-4.471180	0.719664	0.008789	0.666624	-1.000000	-1.000000	-1.000000	-1.000000	-1.000000	-1.000000	-1.000000	85.379310	0.000000	-1.000000	-1.000000	597576.000000	1772894906.845583
-5535.990000	-8252.910000	4250.565000	-1684.980000	-24527.295000	-18133.020000	-2568.105000	8086.500000	-0.037895	-2.464755	-4.793510	-5.134442	-4.124115	-1.585357	7.630472	-1.130649	-3.723440	5.264700	-4.471180	0.719664	0.008789	0.666624	-1.000000	-1.000000	-1.000000	-1.000000	-1.000000	-1.000000	-1.000000	85.379310	0.000000	-1.000000	-1.000000	597577.000000	1772894906.845592
-5551.785000	-8255.565000	4252.410000	-1681.785000	-24524.145000	-18132.165000	-2561.355000	8098.515000	2.853582	2.677571	3.069715	4.072902	4.745802	5.209241	8.062374	1.101049	-3.723440	5.264700	-4.471180	0.719664	0.008789	0.666624	-1.000000	-1.000000	-1.000000	-1.000000	-1.000000	-1.000000	-1.000000	85.379310	0.000000	-1.000000	-1.000000	597578.000000	1772894906.845596
-5524.245000	-8222.940000	4290.885000	-1640.205000	-24482.790000	-18093.870000	-2536.740000	8112.195000	4.433745	5.821811	8.532879	10.497135	10.738275	9.162181	6.479395	3.261384	-3.723440	5.264700	-4.471180	0.719664	0.008789	0.666624	-1.000000	-1.000000	-1.000000	-1.000000	-1.000000	-1.000000	-1.000000	85.379310	0.000000	-1.000000	-1.000000	597579.000000	1772894906.845600
-5497.290000	-8189.865000	4331.250000	-1597.095000	-24439.545000	-18057.195000	-2543.445000	8111.160000	4.156320	6.679612	10.721630	12.955413	12.810019	10.109226	5.302015	5.166012	-3.723440	5.264700	-4.471180	0.719664	0.008789	0.666624	-1.000000	-1.000000	-1.000000	-1.000000	-1.000000	-1.000000	-1.000000	85.379310	0.000000	-1.000000	-1.000000	597580.000000	1772894906.845603
-5464.035000	-8172.810000	4341.960000	-1589.940000	-24434.145000	-18057.465000	-2575.800000	8113.185000	4.419074	7.759073	12.017825	13.814530	13.259195	10.170524	4.174619	5.893192	-0.839300	4.883200	-5.463080	0.717772	0.005310	0.667418	-1.000000	-1.000000	-1.000000	-1.000000	-1.000000	-1.000000	-1.000000	85.379310	0.000000	-1.000000	-1.000000	597581.000000	1772894906.847217
-5476.230000	-8213.670000	4285.845000	-1652.130000	-24498.315000	-18117.630000	-2618.145000	8122.590000	6.909963	8.927197	11.739980	12.369229	11.268435	7.998283	-0.736120	4.842844	-0.839300	4.883200	-5.463080	0.717772	0.005310	0.667418	-1.000000	-1.000000	-1.000000	-1.000000	-1.000000	-1.000000	-1.000000	85.379310	0.000000	-1.000000	-1.000000	597582.000000	1772894906.847225
-5531.625000	-8283.915000	4207.185000	-1733.940000	-24576.255000	-18180.360000	-2619.180000	8116.470000	8.448165	5.475209	4.915645	3.845747	2.282719	-0.515462	-10.441309	2.425279	-0.839300	4.883200	-5.463080	0.717772	0.005310	0.667418	-1.000000	-1.000000	-1.000000	-1.000000	-1.000000	-1.000000	-1.000000	85.379310	0.000000	-1.000000	-1.000000	597583.000000	1772894906.851234
-5561.505000	-8290.980000	4216.365000	-1719.000000	-24555.915000	-18152.955000	-2559.555000	8103.330000	3.611660	-5.766862	-10.110103	-12.619815	-13.947146	-14.428702	-18.287730	-0.549641	-0.839300	4.883200	-5.463080	0.717772	0.005310	0.667418	-1.000000	-1.000000	-1.000000	-1.000000	-1.000000	-1.000000	-1.000000	85.379310	0.000000	-1.000000	-1.000000	597584.000000	1772894906.851242
-5551.020000	-8263.350000	4239.540000	-1698.120000	-24537.555000	-18138.465000	-2550.285000	8096.130000	-7.278580	-19.037809	-24.978645	-27.763965	-27.927553	-24.563830	-15.711743	-3.318572	-0.839300	4.883200	-5.463080	0.717772	0.005310	0.667418	-1.000000	-1.000000	-1.000000	-1.000000	-1.000000	-1.000000	-1.000000	85.379310	0.000000	-1.000000	-1.000000	597585.000000	1772894906.855170
-5537.880000	-8251.020000	4242.105000	-1698.795000	-24540.975000	-18143.460000	-2555.865000	8095.005000	-16.439319	-23.472611	-28.019181	-29.882101	-28.686152	-22.378732	-2.807588	-5.198888	-0.839300	4.883200	-5.463080	0.717772	0.005310	0.667418	-1.000000	-1.000000	-1.000000	-1.000000	-1.000000	-1.000000	-1.000000	85.379310	0.000000	-1.000000	-1.000000	597586.000000	1772894906.855178
-5512.815000	-8247.015000	4244.220000	-1696.815000	-24540.435000	-18144.765000	-2562.570000	8099.325000	-16.351775	-14.831451	-16.680247	-17.233555	-15.464274	-9.244333	11.055608	-5.866568	-0.839300	4.883200	-5.463080	0.717772	0.005310	0.667418	-1.000000	-1.000000	-1.000000	-1.000000	-1.000000	-1.000000	-1.000000	85.379310	0.000000	-1.000000	-1.000000	597587.000000	1772894906.859408
-5503.140000	-8254.620000	4240.080000	-1697.850000	-24541.920000	-18148.815000	-2573.415000	8102.970000	-7.076780	0.480741	0.866713	1.343610	2.616756	5.813863	16.722859	-5.237088	-0.839300	4.883200	-5.463080	0.717772	0.005310	0.667418	-1.000000	-1.000000	-1.000000	-1.000000	-1.000000	-1.000000	-1.000000	85.379310	0.000000	-1.000000	-1.000000	597588.000000	1772894906.859416
-5502.645000	-8257.815000	4245.615000	-1688.805000	-24532.560000	-18141.615000	-2576.070000	8106.435000	4.393849	12.269313	14.164396	15.341822	15.525122	14.580766	12.422572	-3.142867	-0.839300	4.883200	-5.463080	0.717772	0.005310	0.667418	-1.000000	-1.000000	-1.000000	-1.000000	-1.000000	-1.000000	-1.000000	85.379310	0.000000	-1.000000	-1.000000	597589.000000	1772894906.863173
-5515.470000	-8247.555000	4266.810000	-1664.550000	-24508.395000	-18120.240000	-2568.915000	8103.510000	10.672028	15.461560	18.893837	20.712379	19.947342	15.691942	3.499756	0.105810	-0.839300	4.883200	-5.463080	0.717772	0.005310	0.667418	-1.000000	-1.000000	-1.000000	-1.000000	-1.000000	-1.000000	-1.000000	85.379310	0.000000	-1.000000	-1.000000	597590.000000	1772894906.863181
-5532.930000	-8244.405000	4269.420000	-1663.020000	-24507.720000	-18118.395000	-2566.440000	8096.355000	9.625967	12.997886	18.459422	20.947886	19.849394	14.070091	-2.945895	3.097825	0.625660	5.737760	-5.325740	0.717405	0.005737	0.664244	-1.000000	-1.000000	-1.000000	-1.000000	-1.000000	-1.000000	-1.000000	85.379310	0.000000	-1.000000	-1.000000	597591.000000	1772894906.867697
-5528.070000	-8226.585000	4272.030000	-1667.025000	-24513.705000	-18121.050000	-2553.705000	8095.545000	5.049990	10.825360	17.543791	20.210237	19.302623	13.785665	-4.122440	4.492440	0.625660	5.737760	-5.325740	0.717405	0.005737	0.664244	-1.000000	-1.000000	-1.000000	-1.000000	-1.000000	-1.000000	-1.000000	85.379310	0.000000	-1.000000	-1.000000	597592.000000	1772894906.867704
-5502.060000	-8235.090000	4259.250000	-1679.535000	-24525.270000	-18131.490000	-2550.465000	8099.730000	2.470962	10.560473	15.363367	16.938387	16.327958	12.547636	-2.871178	4.585584	0.625660	5.737760	-5.325740	0.717405	0.005737	0.664244	-1.000000	-1.000000	-1.000000	-1.000000	-1.000000	-1.000000	-1.000000	85.379310	0.000000	-1.000000	-1.000000	597593.000000	1772894906.871179
-5508.585000	-8247.420000	4252.095000	-1685.835000	-24532.695000	-18141.570000	-2562.075000	8100.270000	3.490886	8.011013	7.577432	6.962018	6.619040	5.612943	-3.101248	4.419495	0.625660	5.737760	-5.325740	0.717405	0.005737	0.664244	-1.000000	-1.000000	-1.000000	-1.000000	-1.000000	-1.000000	-1.000000	85.379310	0.000000	-1.000000	-1.000000	597594.000000	1772894906.871186
-5508.630000	-8235.765000	4264.875000	-1673.055000	-24520.365000	-18131.310000	-2562.165000	8107.020000	4.533234	-0.302906	-5.987324	-8.573432	-8.479219	-6.506972	-5.278941	3.982488	0.625660	5.737760	-5.325740	0.717405	0.005737	0.664244	-1.000000	-1.000000	-1.000000	-1.000000	-1.000000	-1.000000	-1.000000	85.379310	0.000000	-1.000000	-1.000000	597595.000000	1772894906.875233
-5513.130000	-8241.570000	4260.195000	-1674.810000	-24518.520000	-18129.465000	-2566.710000	8114.310000	1.449920	-11.587388	-19.203110	-22.378946	-21.603789	-17.503150	-6.864135	2.539663	0.625660	5.737760	-5.325740	0.717405	0.005737	0.664244	-1.000000	-1.000000	-1.000000	-1.000000	-1.000000	-1.000000	-1.000000	85.379310	0.000000	-1.000000	-1.000000	597596.000000	1772894906.875243
-5517.540000	-8242.425000	4266.405000	-1661.040000	-24500.520000	-18110.610000	-2549.655000	8122.095000	-5.840852	-19.570887	-25.326746	-27.542362	-26.015870	-21.245843	-5.281005	0.099009	0.625660	5.737760	-5.325740	0.717405	0.005737	0.664244	-1.000000	-1.000000	-1.000000	-1.000000	-1.000000	-1.000000	-1.000000	85.379310	0.000000	-1.000000	-1.000000	597597.000000	1772894906.879242
-5501.880000	-8209.485000	4298.760000	-1632.780000	-24476.670000	-18089.235000	-2530.080000	8127.270000	-12.898504	-19.639284	-21.589908	-21.985841	-20.031732	-16.009220	0.191142	-2.332205	0.625660	5.737760	-5.325740	0.717405	0.005737	0.664244	-1.000000	-1.000000	-1.000000	-1.000000	-1.000000	-1.000000	-1.000000	85.379310	0.000000	-1.000000	-1.000000	597598.000000	1772894906.879252
-5486.670000	-8200.845000	4304.205000	-1631.205000	-24477.525000	-18093.240000	-2540.745000	8115.750000	-13.827385	-10.931539	-9.519997	-8.417293	-6.886331	-4.706627	7.386252	-3.852045	0.625660	5.737760	-5.325740	0.717405	0.005737	0.664244	-1.000000	-1.000000	-1.000000	-1.000000	-1.000000	-1.000000	-1.000000	85.379310	0.000000	-1.000000	-1.000000	597599.000000	1772894906.883357
-5487.570000	-8214.165000	4292.370000	-1640.745000	-24484.095000	-18099.855000	-2552.985000	8102.385000	-6.165799	2.555698	5.572686	7.082061	7.298660	6.977499	11.561727	-4.519585	0.625660	5.737760	-5.325740	0.717405	0.005737	0.664244	-1.000000	-1.000000	-1.000000	-1.000000	-1.000000	-1.000000	-1.000000	85.379310	0.000000	-1.000000	-1.000000	597600.000000	1772894906.883368
-5524.470000	-8257.365000	4246.965000	-1687.185000	-24530.175000	-18143.505000	-2579.490000	8094.555000	5.454894	12.787689	15.927732	17.030606	15.792648	13.090265	8.467647	-4.764363	-3.341940	4.623780	-3.998120	0.716307	0.012512	0.663328	-1.000000	-1.000000	-1.000000	-1.000000	-1.000000	-1.000000	-1.000000	85.379310	0.000000	-1.000000	-1.000000	597601.000000	1772894906.887174
-5534.640000	-8254.440000	4250.700000	-1685.295000	-24530.760000	-18149.625000	-2588.715000	8087.085000	12.070207	13.416414	15.946931	16.438562	14.405949	10.431651	-1.520179	-4.543045	-3.341940	4.623780	-3.998120	0.716307	0.012512	0.663328	-1.000000	-1.000000	-1.000000	-1.000000	-1.000000	-1.000000	-1.000000	85.379310	0.000000	-1.000000	-1.000000	597602.000000	1772894906.887179
-5517.855000	-8245.530000	4260.060000	-1674.180000	-24519.060000	-18137.565000	-2584.260000	8094.060000	9.390165	5.837211	7.359354	7.303010	5.371893	1.786326	-12.137976	-3.417772	-3.341940	4.623780	-3.998120	0.716307	0.012512	0.663328	-1.000000	-1.000000	-1.000000	-1.000000	-1.000000	-1.000000	-1.000000	85.379310	0.000000	-1.000000	-1.000000	597603.000000	1772894906.891195
-5525.820000	-8249.220000	4257.855000	-1673.100000	-24516.045000	-18134.865000	-2589.975000	8099.685000	1.478584	-2.964574	-2.663141	-3.031429	-4.143560	-5.900848	-15.889933	-1.097978	-3.341940	4.623780	-3.998120	0.716307	0.012512	0.663328	-1.000000	-1.000000	-1.000000	-1.000000	-1.000000	-1.000000	-1.000000	85.379310	0.000000	-1.000000	-1.000000	597604.000000	1772894906.891231
-5523.390000	-8240.085000	4273.785000	-1653.210000	-24494.580000	-18112.005000	-2582.415000	8097.075000	-5.274090	-7.268723	-8.038669	-8.367823	-8.373713	-7.695512	-10.384327	1.863639	-3.341940	4.623780	-3.998120	0.716307	0.012512	0.663328	-1.000000	-1.000000	-1.000000	-1.000000	-1.000000	-1.000000	-1.000000	85.379310	0.000000	-1.000000	-1.000000	597605.000000	1772894906.895595
-5540.670000	-8247.015000	4266.000000	-1662.570000	-24504.165000	-18115.965000	-2579.355000	8079.660000	-7.679044	-5.809474	-7.196164	-7.337857	-6.502201	-3.770256	0.548705	3.848798	-3.341940	4.623780	-3.998120	0.716307	0.012512	0.663328	-1.000000	-1.000000	-1.000000	-1.000000	-1.000000	-1.000000	-1.000000	85.379310	0.000000	-1.000000	-1.000000	597606.000000	1772894906.895646
-5532.390000	-8250.885000	4253.400000	-1682.820000	-24527.745000	-18136.980000	-2570.625000	8082.045000	-6.100510	-1.477719	-3.146512	-3.315311	-2.220968	1.577109	10.561968	3.588393	-3.341940	4.623780	-3.998120	0.716307	0.012512	0.663328	-1.000000	-1.000000	-1.000000	-1.000000	-1.000000	-1.000000	-1.000000	85.379310	0.000000	-1.000000	-1.000000	597607.000000	1772894906.899227
-5514.840000	-8251.695000	4248.045000	-1691.775000	-24538.905000	-18148.995000	-2563.110000	8101.890000	-2.012592	1.962422	0.048580	-0.504220	0.284954	3.926217	15.385132	2.305820	-3.341940	4.623780	-3.998120	0.716307	0.012512	0.663328	-1.000000	-1.000000	-1.000000	-1.000000	-1.000000	-1.000000	-1.000000	85.379310	0.000000	-1.000000	-1.000000	597608.000000	1772894906.899236
-5523.030000	-8259.795000	4244.220000	-1692.405000	-24539.265000	-18153.045000	-2573.865000	8103.735000	3.579953	3.602293	1.685535	0.689514	0.796242	2.914183	14.341767	2.696622	-3.341940	4.623780	-3.998120	0.716307	0.012512	0.663328	-1.000000	-1.000000	-1.000000	-1.000000	-1.000000	-1.000000	-1.000000	85.379310	0.000000	-1.000000	-1.000000	597609.000000	1772894906.903271
-5515.380000	-8232.885000	4277.745000	-1653.390000	-24498.855000	-18114.255000	-2550.510000	8097.705000	9.094112	5.054988	4.052106	3.200320	2.630453	2.132995	9.129592	5.014835	-3.341940	4.623780	-3.998120	0.716307	0.012512	0.663328	-1.000000	-1.000000	-1.000000	-1.000000	-1.000000	-1.000000	-1.000000	85.379310	0.000000	-1.000000	-1.000000	597610.000000	1772894906.903279
-5490.675000	-8192.430000	4328.145000	-1599.030000	-24445.080000	-18069.165000	-2546.415000	8093.835000	12.271052	7.767904	8.839657	9.109827	8.361914	5.187506	2.796068	6.392952	-5.783540	3.647140	-3.341940	0.717039	0.017395	0.667174	-1.000000	-1.000000	-1.000000	-1.000000	-1.000000	-1.000000	-1.000000	85.379310	0.000000	-1.000000	-1.000000	597611.000000	1772894906.907958
-5449.050000	-8167.725000	4363.920000	-1559.745000	-24406.650000	-18038.565000	-2573.370000	8092.305000	11.952108	10.951201	14.564209	16.452674	16.139570	11.339359	-2.638372	4.194310	-5.783540	3.647140	-3.341940	0.717039	0.017395	0.667174	-1.000000	-1.000000	-1.000000	-1.000000	-1.000000	-1.000000	-1.000000	85.379310	0.000000	-1.000000	-1.000000	597612.000000	1772894906.907962
-5453.280000	-8209.845000	4315.365000	-1610.865000	-24453.855000	-18078.390000	-2597.850000	8097.120000	8.482328	11.035992	16.208285	19.027438	19.365094	14.603581	-7.698451	-1.295868	-5.783540	3.647140	-3.341940	0.717039	0.017395	0.667174	-1.000000	-1.000000	-1.000000	-1.000000	-1.000000	-1.000000	-1.000000	85.379310	0.000000	-1.000000	-1.000000	597613.000000	1772894906.911309
-5531.310000	-8278.515000	4230.495000	-1701.405000	-24541.515000	-18150.660000	-2604.645000	8101.530000	1.451041	3.492184	7.488184	9.512214	10.315549	7.627986	-12.761260	-6.903393	-5.783540	3.647140	-3.341940	0.717039	0.017395	0.667174	-1.000000	-1.000000	-1.000000	-1.000000	-1.000000	-1.000000	-1.000000	85.379310	0.000000	-1.000000	-1.000000	597614.000000	1772894906.911316
-5569.785000	-8272.890000	4232.880000	-1701.675000	-24541.650000	-18143.640000	-2564.550000	8110.800000	-10.243856	-11.637128	-11.976751	-12.330398	-11.334751	-10.188722	-15.309057	-8.925541	-5.783540	3.647140	-3.341940	0.717039	0.017395	0.667174	-1.000000	-1.000000	-1.000000	-1.000000	-1.000000	-1.000000	-1.000000	85.379310	0.000000	-1.000000	-1.000000	597615.000000	1772894906.915855
-5507.415000	-8258.940000	4233.735000	-1707.705000	-24552.990000	-18160.290000	-2559.330000	8126.370000	-22.656439	-25.711758	-31.269497	-34.083808	-33.173874	-28.183889	-11.727194	-6.052865	-5.783540	3.647140	-3.341940	0.717039	0.017395	0.667174	-1.000000	-1.000000	-1.000000	-1.000000	-1.000000	-1.000000	-1.000000	85.379310	0.000000	-1.000000	-1.000000	597616.000000	1772894906.915862
-5525.145000	-8245.530000	4258.575000	-1680.480000	-24526.530000	-18142.470000	-2567.655000	8106.165000	-26.512395	-27.683619	-35.932495	-39.714338	-39.289206	-32.929748	-2.290646	-0.658710	-5.783540	3.647140	-3.341940	0.717039	0.017395	0.667174	-1.000000	-1.000000	-1.000000	-1.000000	-1.000000	-1.000000	-1.000000	85.379310	0.000000	-1.000000	-1.000000	597617.000000	1772894906.919151
-5543.415000	-8232.525000	4277.205000	-1660.815000	-24507.180000	-18128.340000	-2574.675000	8084.025000	-17.507858	-14.472721	-20.985608	-23.803269	-24.237791	-20.130557	7.722847	2.822498	-5.783540	3.647140	-3.341940	0.717039	0.017395	0.667174	-1.000000	-1.000000	-1.000000	-1.000000	-1.000000	-1.000000	-1.000000	85.379310	0.000000	-1.000000	-1.000000	597618.000000	1772894906.919157
-5507.415000	-8191.035000	4314.420000	-1628.685000	-24478.290000	-18100.575000	-2547.090000	8078.985000	-0.854789	6.670433	5.272482	4.521967	3.212053	2.834181	12.978435	1.958443	-5.783540	3.647140	-3.341940	0.717039	0.017395	0.667174	-1.000000	-1.000000	-1.000000	-1.000000	-1.000000	-1.000000	-1.000000	85.379310	0.000000	-1.000000	-1.000000	597619.000000	1772894906.923292
-5465.160000	-8153.235000	4345.830000	-1594.305000	-24442.920000	-18063.000000	-2509.605000	8089.020000	15.222251	24.281324	27.892596	28.952575	27.208532	23.102599	12.880806	-1.343276	-5.783540	3.647140	-3.341940	0.717039	0.017395	0.667174	-1.000000	-1.000000	-1.000000	-1.000000	-1.000000	-1.000000	-1.000000	85.379310	0.000000	-1.000000	-1.000000	597620.000000	1772894906.923300
-5472.990000	-8202.330000	4291.335000	-1638.000000	-24475.275000	-18084.510000	-2533.500000	8107.335000	24.282655	29.636514	35.021222	37.020331	35.698071	31.004164	10.372078	-3.083646	-3.036740	3.784480	-4.883200	0.720579	0.016357	0.668699	-1.000000	-1.000000	-1.000000	-1.000000	-1.000000	-1.000000	-1.000000	85.379310	0.000000	-1.000000	-1.000000	597621.000000	1772894906.927117
-5494.365000	-8265.420000	4222.890000	-1709.370000	-24545.025000	-18144.360000	-2570.715000	8120.160000	23.061377	20.226295	23.920222	26.355806	26.400928	24.314880	6.457259	-1.009745	-3.036740	3.784480	-4.883200	0.720579	0.016357	0.668699	-1.000000	-1.000000	-1.000000	-1.000000	-1.000000	-1.000000	-1.000000	85.379310	0.000000	-1.000000	-1.000000	597622.000000	1772894906.927125
-5526.765000	-8278.605000	4229.055000	-1704.960000	-24545.340000	-18147.105000	-2574.045000	8119.170000	13.561987	1.270418	2.415493	5.015333	6.583070	7.970068	-0.531948	3.603712	-3.036740	3.784480	-4.883200	0.720579	0.016357	0.668699	-1.000000	-1.000000	-1.000000	-1.000000	-1.000000	-1.000000	-1.000000	85.379310	0.000000	-1.000000	-1.000000	597623.000000	1772894906.931161
-5541.120000	-8275.230000	4232.430000	-1693.935000	-24535.845000	-18141.435000	-2572.245000	8106.435000	1.042862	-16.666307	-15.968910	-13.579312	-11.499068	-8.585391	-10.104313	6.893515	-3.036740	3.784480	-4.883200	0.720579	0.016357	0.668699	-1.000000	-1.000000	-1.000000	-1.000000	-1.000000	-1.000000	-1.000000	85.379310	0.000000	-1.000000	-1.000000	597624.000000	1772894906.931169
-5531.850000	-8253.180000	4242.240000	-1671.795000	-24517.935000	-18134.190000	-2584.440000	8088.255000	-10.468537	-24.428421	-21.927262	-19.816681	-18.540016	-16.966936	-17.861166	5.416914	-3.036740	3.784480	-4.883200	0.720579	0.016357	0.668699	-1.000000	-1.000000	-1.000000	-1.000000	-1.000000	-1.000000	-1.000000	85.379310	0.000000	-1.000000	-1.000000	597625.000000	1772894906.935296
-5520.420000	-8235.405000	4262.445000	-1656.630000	-24508.755000	-18139.320000	-2594.250000	8072.595000	-17.309692	-19.079691	-15.358003	-13.445964	-13.719793	-15.113076	-18.965560	-0.476060	-3.036740	3.784480	-4.883200	0.720579	0.016357	0.668699	-1.000000	-1.000000	-1.000000	-1.000000	-1.000000	-1.000000	-1.000000	85.379310	0.000000	-1.000000	-1.000000	597626.000000	1772894906.935354
-5510.565000	-8242.605000	4265.595000	-1659.780000	-24506.145000	-18135.270000	-2572.155000	8080.065000	-15.831956	-5.101982	-2.840445	-1.877586	-3.594237	-7.550892	-11.980019	-6.334401	-3.036740	3.784480	-4.883200	0.720579	0.016357	0.668699	-1.000000	-1.000000	-1.000000	-1.000000	-1.000000	-1.000000	-1.000000	85.379310	0.000000	-1.000000	-1.000000	597627.000000	1772894906.939814
-5523.120000	-8266.095000	4232.160000	-1697.040000	-24532.425000	-18142.740000	-2558.925000	8092.035000	-7.690209	7.420861	6.414965	5.007202	3.037020	-1.092783	0.005551	-7.495136	-3.036740	3.784480	-4.883200	0.720579	0.016357	0.668699	-1.000000	-1.000000	-1.000000	-1.000000	-1.000000	-1.000000	-1.000000	85.379310	0.000000	-1.000000	-1.000000	597628.000000	1772894906.939820
-5529.645000	-8282.115000	4215.960000	-1727.730000	-24561.225000	-18163.530000	-2561.715000	8098.920000	-0.090978	10.168142	6.130667	1.482341	0.960368	-0.028256	11.203330	-3.309658	-3.036740	3.784480	-4.883200	0.720579	0.016357	0.668699	-1.000000	-1.000000	-1.000000	-1.000000	-1.000000	-1.000000	-1.000000	85.379310	0.000000	-1.000000	-1.000000	597629.000000	1772894906.943200
-5521.770000	-8272.890000	4231.755000	-1719.180000	-24556.005000	-18161.460000	-2559.645000	8111.745000	2.569162	5.032085	-0.214232	-7.761588	-6.324776	-2.638300	17.336521	2.723822	-3.036740	3.784480	-4.883200	0.720579	0.016357	0.668699	-1.000000	-1.000000	-1.000000	-1.000000	-1.000000	-1.000000	-1.000000	85.379310	0.000000	-1.000000	-1.000000	597630.000000	1772894906.943206
-5515.245000	-8256.690000	4254.705000	-1688.940000	-24531.255000	-18138.510000	-2553.705000	8116.335000	3.263996	1.963766	-1.891189	-10.305761	-8.308792	-2.069285	17.994234	6.573223	-2.548420	3.250380	-3.906560	0.723326	0.010681	0.660643	-1.000000	-1.000000	-1.000000	-1.000000	-1.000000	-1.000000	-1.000000	85.379310	0.000000	-1.000000	-1.000000	597631.000000	1772894906.947249
-5510.790000	-8253.495000	4255.605000	-1673.055000	-24514.470000	-18124.650000	-2554.425000	8108.280000	6.706202	6.540219	5.770404	0.289239	0.998704	5.680037	14.175815	6.512821	-2.548420	3.250380	-3.906560	0.723326	0.010681	0.660643	-1.000000	-1.000000	-1.000000	-1.000000	-1.000000	-1.000000	-1.000000	85.379310	0.000000	-1.000000	-1.000000	597632.000000	1772894906.947256
-5510.565000	-8242.515000	4279.815000	-1648.215000	-24489.540000	-18101.520000	-2541.240000	8099.235000	12.082144	13.772669	15.896593	16.845548	15.762047	16.220710	6.691448	3.185043	-2.548420	3.250380	-3.906560	0.723326	0.010681	0.660643	-1.000000	-1.000000	-1.000000	-1.000000	-1.000000	-1.000000	-1.000000	85.379310	0.000000	-1.000000	-1.000000	597633.000000	1772894906.951248
-5519.250000	-8244.765000	4284.270000	-1645.965000	-24488.145000	-18102.555000	-2542.275000	8090.280000	13.803953	15.025722	19.000216	26.507682	24.684299	21.475222	-2.047924	-1.219747	-2.548420	3.250380	-3.906560	0.723326	0.010681	0.660643	-1.000000	-1.000000	-1.000000	-1.000000	-1.000000	-1.000000	-1.000000	85.379310	0.000000	-1.000000	-1.000000	597634.000000	1772894906.951267
-5533.965000	-8249.670000	4272.885000	-1660.230000	-24502.365000	-18114.930000	-2543.445000	8084.610000	8.134978	6.793413	11.207551	21.623693	20.529801	16.552167	-8.722913	-4.171383	-2.548420	3.250380	-3.906560	0.723326	0.010681	0.660643	-1.000000	-1.000000	-1.000000	-1.000000	-1.000000	-1.000000	-1.000000	85.379310	0.000000	-1.000000	-1.000000	597635.000000	1772894906.955166
-5518.260000	-8242.740000	4274.280000	-1660.095000	-24502.050000	-18114.885000	-2543.940000	8084.835000	-2.916625	-6.977056	-4.377583	4.238083	4.494936	2.479982	-12.181635	-4.624426	-2.548420	3.250380	-3.906560	0.723326	0.010681	0.660643	-1.000000	-1.000000	-1.000000	-1.000000	-1.000000	-1.000000	-1.000000	85.379310	0.000000	-1.000000	-1.000000	597636.000000	1772894906.955176
-5510.025000	-8233.470000	4281.750000	-1655.415000	-24500.655000	-18117.360000	-2547.630000	8090.730000	-13.055970	-18.130347	-19.280028	-15.431481	-14.508775	-14.197570	-13.252902	-3.421066	-2.548420	3.250380	-3.906560	0.723326	0.010681	0.660643	-1.000000	-1.000000	-1.000000	-1.000000	-1.000000	-1.000000	-1.000000	85.379310	0.000000	-1.000000	-1.000000	597637.000000	1772894906.959096
-5507.955000	-8247.780000	4255.290000	-1682.415000	-24528.555000	-18146.880000	-2573.505000	8105.445000	-16.460285	-20.290344	-25.140474	-26.276884	-25.986277	-25.225943	-12.367353	-1.731868	-2.548420	3.250380	-3.906560	0.723326	0.010681	0.660643	-1.000000	-1.000000	-1.000000	-1.000000	-1.000000	-1.000000	-1.000000	85.379310	0.000000	-1.000000	-1.000000	597638.000000	1772894906.959101
-5529.780000	-8257.950000	4240.845000	-1693.575000	-24537.825000	-18153.450000	-2586.645000	8109.225000	-12.209503	-13.322695	-20.139015	-24.314127	-25.233412	-25.871726	-9.338494	-0.099311	-2.548420	3.250380	-3.906560	0.723326	0.010681	0.660643	-1.000000	-1.000000	-1.000000	-1.000000	-1.000000	-1.000000	-1.000000	85.379310	0.000000	-1.000000	-1.000000	597639.000000	1772894906.963333
-5527.620000	-8252.685000	4251.510000	-1681.110000	-24524.775000	-18140.850000	-2583.945000	8097.480000	-3.980753	-2.419000	-8.858648	-13.569488	-14.898938	-16.932144	-4.396116	1.053564	-2.548420	3.250380	-3.906560	0.723326	0.010681	0.660643	-1.000000	-1.000000	-1.000000	-1.000000	-1.000000	-1.000000	-1.000000	85.379310	0.000000	-1.000000	-1.000000	597640.000000	1772894906.963342
-5507.145000	-8227.530000	4274.550000	-1661.130000	-24506.550000	-18122.805000	-2563.380000	8094.510000	4.051799	6.795440	3.058373	-0.763285	-1.146651	-2.995739	1.843348	1.365830	-2.350040	3.387720	-3.311420	0.719725	0.008545	0.661253	-1.000000	-1.000000	-1.000000	-1.000000	-1.000000	-1.000000	-1.000000	85.379310	0.000000	-1.000000	-1.000000	597641.000000	1772894906.967261
-5495.265000	-8213.175000	4287.735000	-1648.800000	-24494.895000	-18110.565000	-2555.415000	8092.395000	9.662215	11.592700	11.912718	9.040856	10.211642	10.256498	8.452999	1.262973	-2.350040	3.387720	-3.311420	0.719725	0.008545	0.661253	-1.000000	-1.000000	-1.000000	-1.000000	-1.000000	-1.000000	-1.000000	85.379310	0.000000	-1.000000	-1.000000	597642.000000	1772894906.967268
-5504.040000	-8221.365000	4282.110000	-1653.165000	-24497.865000	-18114.480000	-2561.220000	8077.815000	11.854518	11.527395	15.483312	13.361020	15.619760	18.232528	13.537401	1.475872	-2.350040	3.387720	-3.311420	0.719725	0.008545	0.661253	-1.000000	-1.000000	-1.000000	-1.000000	-1.000000	-1.000000	-1.000000	85.379310	0.000000	-1.000000	-1.000000	597643.000000	1772894906.971392
-5523.885000	-8251.605000	4252.860000	-1682.550000	-24526.665000	-18139.590000	-2558.520000	8072.055000	9.683300	6.790064	12.741849	11.767117	14.105973	18.507054	14.558929	1.735050	-2.350040	3.387720	-3.311420	0.719725	0.008545	0.661253	-1.000000	-1.000000	-1.000000	-1.000000	-1.000000	-1.000000	-1.000000	85.379310	0.000000	-1.000000	-1.000000	597644.000000	1772894906.971429
-5523.210000	-8249.715000	4258.170000	-1675.080000	-24518.745000	-18130.140000	-2542.995000	8082.630000	2.918778	-1.376838	4.894035	5.717742	7.143265	11.497310	10.574997	1.276266	-2.350040	3.387720	-3.311420	0.719725	0.008545	0.661253	-1.000000	-1.000000	-1.000000	-1.000000	-1.000000	-1.000000	-1.000000	85.379310	0.000000	-1.000000	-1.000000	597645.000000	1772894906.975273
-5517.810000	-8237.970000	4273.830000	-1655.775000	-24498.585000	-18113.355000	-2552.085000	8086.410000	-5.846154	-8.994249	-3.521590	-0.721128	-0.746514	1.639590	3.687509	0.146967	-2.350040	3.387720	-3.311420	0.719725	0.008545	0.661253	-1.000000	-1.000000	-1.000000	-1.000000	-1.000000	-1.000000	-1.000000	85.379310	0.000000	-1.000000	-1.000000	597646.000000	1772894906.975281
-5509.620000	-8232.300000	4278.105000	-1650.915000	-24492.645000	-18112.005000	-2577.330000	8086.950000	-11.492336	-10.773935	-6.723581	-2.569604	-3.861475	-4.575211	-2.872737	-1.196546	-2.350040	3.387720	-3.311420	0.719725	0.008545	0.661253	-1.000000	-1.000000	-1.000000	-1.000000	-1.000000	-1.000000	-1.000000	85.379310	0.000000	-1.000000	-1.000000	597647.000000	1772894906.983473
-5521.545000	-8241.480000	4271.715000	-1656.270000	-24497.865000	-18121.095000	-2594.115000	8076.150000	-10.368810	-5.229286	-3.134771	0.938683	-0.888446	-4.634864	-7.493182	-2.481179	-2.350040	3.387720	-3.311420	0.719725	0.008545	0.661253	-1.000000	-1.000000	-1.000000	-1.000000	-1.000000	-1.000000	-1.000000	85.379310	0.000000	-1.000000	-1.000000	597648.000000	1772894906.983482
-5524.110000	-8244.450000	4270.230000	-1659.690000	-24503.130000	-18126.315000	-2585.430000	8073.405000	-3.832757	3.069865	2.621052	4.828305	3.247346	-2.204211	-10.046562	-3.121708	-2.350040	3.387720	-3.311420	0.719725	0.008545	0.661253	-1.000000	-1.000000	-1.000000	-1.000000	-1.000000	-1.000000	-1.000000	85.379310	0.000000	-1.000000	-1.000000	597649.000000	1772894906.983492
-5532.975000	-8237.880000	4280.175000	-1648.530000	-24493.140000	-18112.455000	-2559.555000	8070.120000	2.818553	7.727884	4.625676	3.864806	2.961402	-1.931874	-10.007034	-2.328927	-2.350040	3.387720	-3.311420	0.719725	0.008545	0.661253	-1.000000	-1.000000	-1.000000	-1.000000	-1.000000	-1.000000	-1.000000	85.379310	0.000000	-1.000000	-1.000000	597650.000000	1772894906.983495
-5514.525000	-8237.025000	4269.420000	-1665.225000	-24514.830000	-18134.685000	-2566.890000	8073.810000	5.558606	6.228795	1.154799	-2.241880	-2.502531	-4.605198	-6.600839	0.070969	-5.096840	0.061040	-2.441600	0.716124	0.017090	0.669859	-1.000000	-1.000000	-1.000000	-1.000000	-1.000000	-1.000000	-1.000000	85.379310	0.000000	-1.000000	-1.000000	597651.000000	1772894906.987177
-5483.745000	-8242.920000	4253.445000	-1683.270000	-24528.420000	-18142.380000	-2573.280000	8086.635000	5.470768	1.226663	-4.901401	-9.489177	-9.438417	-7.779159	-0.924987	3.561664	-5.096840	0.061040	-2.441600	0.716124	0.017090	0.669859	-1.000000	-1.000000	-1.000000	-1.000000	-1.000000	-1.000000	-1.000000	85.379310	0.000000	-1.000000	-1.000000	597652.000000	1772894906.987212
-5495.805000	-8254.080000	4242.465000	-1694.250000	-24536.520000	-18140.355000	-2555.820000	8083.530000	5.748250	-2.852775	-9.094695	-13.138571	-12.974930	-8.297517	4.186437	6.791633	-5.096840	0.061040	-2.441600	0.716124	0.017090	0.669859	-1.000000	-1.000000	-1.000000	-1.000000	-1.000000	-1.000000	-1.000000	85.379310	0.000000	-1.000000	-1.000000	597653.000000	1772894906.991382
-5505.930000	-8248.635000	4255.110000	-1680.030000	-24525.540000	-18137.295000	-2557.080000	8079.705000	6.055116	-3.801894	-8.644596	-10.750649	-10.399841	-4.715244	6.700427	7.329695	-5.096840	0.061040	-2.441600	0.716124	0.017090	0.669859	-1.000000	-1.000000	-1.000000	-1.000000	-1.000000	-1.000000	-1.000000	85.379310	0.000000	-1.000000	-1.000000	597654.000000	1772894906.991408
-5488.605000	-8227.440000	4277.475000	-1655.910000	-24502.590000	-18129.240000	-2584.485000	8088.030000	3.812731	-1.943821	-3.450914	-3.019027	-2.517674	1.510259	6.308799	3.697905	-5.096840	0.061040	-2.441600	0.716124	0.017090	0.669859	-1.000000	-1.000000	-1.000000	-1.000000	-1.000000	-1.000000	-1.000000	85.379310	0.000000	-1.000000	-1.000000	597655.000000	1772894906.995291
-5510.745000	-8256.060000	4246.110000	-1686.285000	-24529.455000	-18150.120000	-2588.580000	8088.480000	-0.965892	1.254773	4.088910	6.666009	7.081009	7.313888	3.874430	-2.308985	-5.096840	0.061040	-2.441600	0.716124	0.017090	0.669859	-1.000000	-1.000000	-1.000000	-1.000000	-1.000000	-1.000000	-1.000000	85.379310	0.000000	-1.000000	-1.000000	597656.000000	1772894906.995299
-5539.320000	-8265.150000	4241.520000	-1687.590000	-24526.575000	-18138.015000	-2562.255000	8079.390000	-6.216866	3.294560	9.444043	13.016989	13.338039	9.952917	1.343267	-7.022304	-5.096840	0.061040	-2.441600	0.716124	0.017090	0.669859	-1.000000	-1.000000	-1.000000	-1.000000	-1.000000	-1.000000	-1.000000	85.379310	0.000000	-1.000000	-1.000000	597657.000000	1772894906.999649
-5542.605000	-8259.705000	4247.595000	-1681.155000	-24517.935000	-18130.005000	-2554.605000	8071.605000	-10.202862	2.335040	9.242241	12.500676	13.089500	8.671869	0.345991	-8.199381	-5.096840	0.061040	-2.441600	0.716124	0.017090	0.669859	-1.000000	-1.000000	-1.000000	-1.000000	-1.000000	-1.000000	-1.000000	85.379310	0.000000	-1.000000	-1.000000	597658.000000	1772894906.999657
-5528.790000	-8256.285000	4250.970000	-1680.570000	-24519.240000	-18130.185000	-2548.215000	8066.610000	-11.088430	-0.737824	4.368551	6.358799	7.485928	4.760091	0.253259	-6.155653	-5.096840	0.061040	-2.441600	0.716124	0.017090	0.669859	-1.000000	-1.000000	-1.000000	-1.000000	-1.000000	-1.000000	-1.000000	85.379310	0.000000	-1.000000	-1.000000	597659.000000	1772894907.003268
-5529.060000	-8264.385000	4243.455000	-1689.615000	-24529.320000	-18129.870000	-2533.230000	8064.810000	-7.649871	-3.462415	-1.393162	-1.048054	0.310294	0.363811	-0.147349	-2.590368	-5.096840	0.061040	-2.441600	0.716124	0.017090	0.669859	-1.000000	-1.000000	-1.000000	-1.000000	-1.000000	-1.000000	-1.000000	85.379310	0.000000	-1.000000	-1.000000	597660.000000	1772894907.003276
-5497.335000	-8233.605000	4275.360000	-1655.280000	-24496.515000	-18097.740000	-2506.095000	8071.020000	-0.912776	-3.463333	-3.960911	-4.976379	-4.259019	-2.036392	-0.341323	0.821885	-7.645260	1.312360	-0.625660	0.718565	0.023926	0.672178	-1.000000	-1.000000	-1.000000	-1.000000	-1.000000	-1.000000	-1.000000	85.379310	0.000000	-1.000000	-1.000000	597661.000000	1772894907.007387
-5466.690000	-8215.785000	4292.730000	-1637.325000	-24478.695000	-18082.845000	-2498.400000	8083.800000	7.279916	0.564115	-1.237391	-2.846948	-3.610897	-1.039341	0.272402	3.344912	-7.645260	1.312360	-0.625660	0.718565	0.023926	0.672178	-1.000000	-1.000000	-1.000000	-1.000000	-1.000000	-1.000000	-1.000000	85.379310	0.000000	-1.000000	-1.000000	597662.000000	1772894907.007394
-5483.025000	-8204.445000	4307.940000	-1620.270000	-24462.765000	-18073.125000	-2509.920000	8085.510000	14.494080	6.763684	4.507980	3.055825	0.796616	1.821269	0.762334	4.961941	-7.645260	1.312360	-0.625660	0.718565	0.023926	0.672178	-1.000000	-1.000000	-1.000000	-1.000000	-1.000000	-1.000000	-1.000000	85.379310	0.000000	-1.000000	-1.000000	597663.000000	1772894907.011257
-5505.840000	-8206.920000	4306.680000	-1624.455000	-24472.485000	-18106.020000	-2563.875000	8083.305000	16.185764	10.443343	8.082256	7.100632	4.224487	2.879190	-0.423954	5.221362	-7.645260	1.312360	-0.625660	0.718565	0.023926	0.672178	-1.000000	-1.000000	-1.000000	-1.000000	-1.000000	-1.000000	-1.000000	85.379310	0.000000	-1.000000	-1.000000	597664.000000	1772894907.011267
-5507.190000	-8238.195000	4271.310000	-1662.435000	-24511.005000	-18149.805000	-2606.715000	8082.270000	9.825380	8.230365	6.032767	5.303222	2.807942	-0.865750	-4.734453	3.617067	-7.645260	1.312360	-0.625660	0.718565	0.023926	0.672178	-1.000000	-1.000000	-1.000000	-1.000000	-1.000000	-1.000000	-1.000000	85.379310	0.000000	-1.000000	-1.000000	597665.000000	1772894907.015646
-5541.795000	-8288.190000	4217.040000	-1716.165000	-24558.480000	-18180.495000	-2608.335000	8077.095000	-1.128423	-0.016075	-1.997606	-2.899856	-4.327962	-9.382390	-11.785491	0.906861	-7.645260	1.312360	-0.625660	0.718565	0.023926	0.672178	-1.000000	-1.000000	-1.000000	-1.000000	-1.000000	-1.000000	-1.000000	85.379310	0.000000	-1.000000	-1.000000	597666.000000	1772894907.015654
-5566.860000	-8284.410000	4224.960000	-1703.925000	-24543.090000	-18157.860000	-2568.330000	8072.910000	-11.396990	-11.529962	-13.411245	-14.473159	-14.273828	-18.130615	-16.746207	-1.444142	-7.645260	1.312360	-0.625660	0.718565	0.023926	0.672178	-1.000000	-1.000000	-1.000000	-1.000000	-1.000000	-1.000000	-1.000000	85.379310	0.000000	-1.000000	-1.000000	597667.000000	1772894907.022472
-5559.885000	-8272.395000	4240.845000	-1687.995000	-24529.320000	-18150.210000	-2562.480000	8060.625000	-17.625206	-20.037782	-21.434179	-21.937509	-19.839172	-19.686094	-13.256130	-2.733098	-7.645260	1.312360	-0.625660	0.718565	0.023926	0.672178	-1.000000	-1.000000	-1.000000	-1.000000	-1.000000	-1.000000	-1.000000	85.379310	0.000000	-1.000000	-1.000000	597668.000000	1772894907.022477
-5524.875000	-8260.830000	4255.830000	-1671.885000	-24512.895000	-18133.380000	-2553.795000	8054.910000	-17.214893	-18.972084	-18.908015	-18.067297	-14.630602	-10.200835	-0.940568	-3.322436	-7.645260	1.312360	-0.625660	0.718565	0.023926	0.672178	-1.000000	-1.000000	-1.000000	-1.000000	-1.000000	-1.000000	-1.000000	85.379310	0.000000	-1.000000	-1.000000	597669.000000	1772894907.023595
-5503.365000	-8274.870000	4240.395000	-1688.850000	-24529.545000	-18148.815000	-2573.910000	8062.650000	-9.169902	-8.213202	-6.103868	-3.969640	-0.543600	5.621996	12.738332	-3.637548	-7.645260	1.312360	-0.625660	0.718565	0.023926	0.672178	-1.000000	-1.000000	-1.000000	-1.000000	-1.000000	-1.000000	-1.000000	85.379310	0.000000	-1.000000	-1.000000	597670.000000	1772894907.023603
-5505.840000	-8232.705000	4281.165000	-1647.990000	-24491.025000	-18112.005000	-2557.080000	8080.830000	3.162535	5.700472	9.121569	11.517034	13.557659	18.478576	19.509718	-3.138518	-5.081580	2.624720	-1.541260	0.724119	0.015991	0.666746	-1.000000	-1.000000	-1.000000	-1.000000	-1.000000	-1.000000	-1.000000	85.379310	0.000000	-1.000000	-1.000000	597671.000000	1772894907.027316
-5513.085000	-8186.445000	4323.420000	-1606.590000	-24449.355000	-18072.180000	-2536.785000	8083.035000	13.538315	16.744786	19.653282	21.035307	21.048250	23.400176	18.220398	-1.007061	-5.081580	2.624720	-1.541260	0.724119	0.015991	0.666746	-1.000000	-1.000000	-1.000000	-1.000000	-1.000000	-1.000000	-1.000000	85.379310	0.000000	-1.000000	-1.000000	597672.000000	1772894907.027325
-5482.080000	-8176.995000	4332.105000	-1597.140000	-24440.400000	-18064.575000	-2544.975000	8064.765000	17.932693	22.845957	23.596188	23.361357	21.720487	22.151329	13.943433	1.994246	-5.081580	2.624720	-1.541260	0.724119	0.015991	0.666746	-1.000000	-1.000000	-1.000000	-1.000000	-1.000000	-1.000000	-1.000000	85.379310	0.000000	-1.000000	-1.000000	597673.000000	1772894907.031326
-5480.640000	-8231.580000	4267.755000	-1665.855000	-24510.105000	-18130.140000	-2584.305000	8058.870000	16.795883	22.678952	20.904291	19.386964	17.068888	16.848153	9.612977	3.687040	-5.081580	2.624720	-1.541260	0.724119	0.015991	0.666746	-1.000000	-1.000000	-1.000000	-1.000000	-1.000000	-1.000000	-1.000000	85.379310	0.000000	-1.000000	-1.000000	597674.000000	1772894907.031333
-5491.575000	-8278.200000	4222.620000	-1710.855000	-24553.890000	-18175.455000	-2598.570000	8063.955000	12.170820	14.010084	10.650652	8.618929	6.436275	5.806398	2.707419	3.135953	-5.081580	2.624720	-1.541260	0.724119	0.015991	0.666746	-1.000000	-1.000000	-1.000000	-1.000000	-1.000000	-1.000000	-1.000000	85.379310	0.000000	-1.000000	-1.000000	597675.000000	1772894907.036220
-5500.440000	-8269.110000	4238.505000	-1691.820000	-24533.865000	-18155.520000	-2578.050000	8057.520000	4.990941	-2.350452	-5.605949	-7.406073	-9.031734	-10.886612	-8.363107	1.591242	-5.081580	2.624720	-1.541260	0.724119	0.015991	0.666746	-1.000000	-1.000000	-1.000000	-1.000000	-1.000000	-1.000000	-1.000000	85.379310	0.000000	-1.000000	-1.000000	597676.000000	1772894907.036227
-5532.255000	-8259.300000	4247.910000	-1683.180000	-24525.405000	-18148.905000	-2583.090000	8050.365000	-4.707988	-19.240601	-20.700001	-21.618364	-22.384343	-25.886954	-19.114149	0.458154	-5.081580	2.624720	-1.541260	0.724119	0.015991	0.666746	-1.000000	-1.000000	-1.000000	-1.000000	-1.000000	-1.000000	-1.000000	85.379310	0.000000	-1.000000	-1.000000	597677.000000	1772894907.039308
-5538.690000	-8248.230000	4260.780000	-1669.545000	-24510.150000	-18134.055000	-2575.665000	8053.785000	-16.184007	-27.366258	-26.282368	-25.972883	-25.684170	-30.027705	-22.970992	-0.073510	-5.081580	2.624720	-1.541260	0.724119	0.015991	0.666746	-1.000000	-1.000000	-1.000000	-1.000000	-1.000000	-1.000000	-1.000000	85.379310	0.000000	-1.000000	-1.000000	597678.000000	1772894907.039319
-5528.295000	-8253.135000	4256.010000	-1674.945000	-24514.650000	-18137.655000	-2575.395000	8049.600000	-25.533704	-22.911028	-19.869862	-18.539869	-17.307578	-20.949203	-17.328096	-0.636930	-5.081580	2.624720	-1.541260	0.724119	0.015991	0.666746	-1.000000	-1.000000	-1.000000	-1.000000	-1.000000	-1.000000	-1.000000	85.379310	0.000000	-1.000000	-1.000000	597679.000000	1772894907.043442
-5529.330000	-8259.210000	4253.040000	-1676.970000	-24516.135000	-18136.710000	-2569.995000	8047.530000	-26.380514	-10.506970	-6.877532	-5.166444	-3.396921	-4.836383	-5.084506	-1.913209	-5.081580	2.624720	-1.541260	0.724119	0.015991	0.666746	-1.000000	-1.000000	-1.000000	-1.000000	-1.000000	-1.000000	-1.000000	85.379310	0.000000	-1.000000	-1.000000	597680.000000	1772894907.043449
-5509.800000	-8243.730000	4268.295000	-1660.590000	-24500.115000	-18119.565000	-2553.705000	8064.090000	-15.600133	1.466613	4.365003	5.777410	7.529933	9.176924	7.970645	-3.254407	3.509800	4.669560	-0.747740	0.725157	0.005005	0.658140	-1.000000	-1.000000	-1.000000	-1.000000	-1.000000	-1.000000	-1.000000	85.379310	0.000000	-1.000000	-1.000000	597681.000000	1772894907.047705
-5500.080000	-8229.555000	4274.010000	-1656.495000	-24499.080000	-18118.890000	-2550.240000	8072.415000	2.715936	9.076110	10.397077	11.122941	12.265745	16.653920	17.361185	-2.416945	3.509800	4.669560	-0.747740	0.725157	0.005005	0.658140	-1.000000	-1.000000	-1.000000	-1.000000	-1.000000	-1.000000	-1.000000	85.379310	0.000000	-1.000000	-1.000000	597682.000000	1772894907.047712
-5496.705000	-8234.460000	4267.440000	-1664.865000	-24507.180000	-18120.420000	-2540.790000	8062.155000	19.941760	14.411984	13.841844	13.825748	13.864769	19.183869	21.248033	1.303407	3.509800	4.669560	-0.747740	0.725157	0.005005	0.658140	-1.000000	-1.000000	-1.000000	-1.000000	-1.000000	-1.000000	-1.000000	85.379310	0.000000	-1.000000	-1.000000	597683.000000	1772894907.051375
-5502.105000	-8256.105000	4242.420000	-1693.080000	-24534.540000	-18144.315000	-2548.170000	8053.650000	28.657883	18.751363	16.503794	15.815157	14.638714	18.574509	18.614868	5.033836	3.509800	4.669560	-0.747740	0.725157	0.005005	0.658140	-1.000000	-1.000000	-1.000000	-1.000000	-1.000000	-1.000000	-1.000000	85.379310	0.000000	-1.000000	-1.000000	597684.000000	1772894907.051382
-5526.450000	-8251.065000	4242.555000	-1697.715000	-24540.570000	-18153.090000	-2565.720000	8047.665000	25.832509	18.644200	15.251274	13.901663	11.978473	13.115698	8.803640	5.504052	3.509800	4.669560	-0.747740	0.725157	0.005005	0.658140	-1.000000	-1.000000	-1.000000	-1.000000	-1.000000	-1.000000	-1.000000	85.379310	0.000000	-1.000000	-1.000000	597685.000000	1772894907.057563
-5513.130000	-8236.530000	4261.905000	-1677.195000	-24519.195000	-18134.685000	-2567.115000	8048.430000	13.501769	11.162147	7.428304	5.545460	3.704275	1.947502	-5.838822	2.524653	3.509800	4.669560	-0.747740	0.725157	0.005005	0.658140	-1.000000	-1.000000	-1.000000	-1.000000	-1.000000	-1.000000	-1.000000	85.379310	0.000000	-1.000000	-1.000000	597686.000000	1772894907.057573
-5495.355000	-8227.845000	4276.530000	-1658.025000	-24499.530000	-18124.155000	-2567.475000	8059.455000	-1.861022	-0.902650	-3.639903	-5.419706	-6.450316	-10.341812	-18.844506	-1.544571	3.509800	4.669560	-0.747740	0.725157	0.005005	0.658140	-1.000000	-1.000000	-1.000000	-1.000000	-1.000000	-1.000000	-1.000000	85.379310	0.000000	-1.000000	-1.000000	597687.000000	1772894907.059332
-5488.740000	-8226.135000	4281.030000	-1650.555000	-24491.745000	-18129.015000	-2581.380000	8068.860000	-13.034889	-11.512248	-11.798951	-12.425391	-12.336201	-17.373963	-23.868239	-4.040777	3.509800	4.669560	-0.747740	0.725157	0.005005	0.658140	-1.000000	-1.000000	-1.000000	-1.000000	-1.000000	-1.000000	-1.000000	85.379310	0.000000	-1.000000	-1.000000	597688.000000	1772894907.059340
-5513.985000	-8256.195000	4255.515000	-1676.340000	-24517.485000	-18152.325000	-2603.475000	8068.995000	-16.814851	-17.005001	-14.357783	-13.169391	-12.129466	-17.239663	-19.736535	-3.843169	3.509800	4.669560	-0.747740	0.725157	0.005005	0.658140	-1.000000	-1.000000	-1.000000	-1.000000	-1.000000	-1.000000	-1.000000	85.379310	0.000000	-1.000000	-1.000000	597689.000000	1772894907.063250
-5512.545000	-8242.695000	4270.230000	-1661.445000	-24502.905000	-18132.120000	-2582.595000	8061.615000	-15.064855	-17.499024	-12.830377	-10.231052	-8.725693	-12.332467	-9.790075	-2.125052	3.509800	4.669560	-0.747740	0.725157	0.005005	0.658140	-1.000000	-1.000000	-1.000000	-1.000000	-1.000000	-1.000000	-1.000000	85.379310	0.000000	-1.000000	-1.000000	597690.000000	1772894907.063257
-5513.985000	-8251.965000	4254.210000	-1678.725000	-24516.720000	-18136.485000	-2560.230000	8059.950000	-11.004857	-13.622674	-8.707747	-5.916933	-4.440388	-4.721653	2.517861	-0.853798	4.410140	5.005280	0.564620	0.723082	0.007202	0.657774	-1.000000	-1.000000	-1.000000	-1.000000	-1.000000	-1.000000	-1.000000	85.379310	0.000000	-1.000000	-1.000000	597691.000000	1772894907.067169
-5515.605000	-8255.925000	4246.020000	-1688.130000	-24525.180000	-18139.770000	-2559.780000	8048.790000	-5.887566	-5.508490	-2.305424	-0.540974	0.606030	4.394892	14.206768	-0.649694	4.410140	5.005280	0.564620	0.723082	0.007202	0.657774	-1.000000	-1.000000	-1.000000	-1.000000	-1.000000	-1.000000	-1.000000	85.379310	0.000000	-1.000000	-1.000000	597692.000000	1772894907.067176
-5495.940000	-8231.040000	4270.500000	-1665.855000	-24504.570000	-18121.770000	-2550.780000	8044.785000	0.484080	5.134302	5.231996	5.363062	5.978522	12.564039	21.231424	-0.783588	4.410140	5.005280	0.564620	0.723082	0.007202	0.657774	-1.000000	-1.000000	-1.000000	-1.000000	-1.000000	-1.000000	-1.000000	85.379310	0.000000	-1.000000	-1.000000	597693.000000	1772894907.071312
-5496.840000	-8231.355000	4271.850000	-1663.200000	-24501.060000	-18119.880000	-2549.205000	8045.685000	7.786157	14.431361	11.450223	10.149297	10.052887	16.666603	20.725794	-0.380907	4.410140	5.005280	0.564620	0.723082	0.007202	0.657774	-1.000000	-1.000000	-1.000000	-1.000000	-1.000000	-1.000000	-1.000000	85.379310	0.000000	-1.000000	-1.000000	597694.000000	1772894907.071324
-5507.730000	-8237.790000	4274.820000	-1653.570000	-24490.305000	-18106.470000	-2532.285000	8051.355000	13.183881	17.639990	13.146936	11.272347	10.470300	14.517252	13.491865	0.781817	4.410140	5.005280	0.564620	0.723082	0.007202	0.657774	-1.000000	-1.000000	-1.000000	-1.000000	-1.000000	-1.000000	-1.000000	85.379310	0.000000	-1.000000	-1.000000	597695.000000	1772894907.075251
-5508.495000	-8223.660000	4298.085000	-1627.470000	-24465.060000	-18085.815000	-2523.780000	8057.880000	12.530637	12.668577	8.925215	7.498825	6.267142	6.822209	3.266737	2.063136	4.410140	5.005280	0.564620	0.723082	0.007202	0.657774	-1.000000	-1.000000	-1.000000	-1.000000	-1.000000	-1.000000	-1.000000	85.379310	0.000000	-1.000000	-1.000000	597696.000000	1772894907.075261
-5482.440000	-8204.130000	4316.040000	-1612.080000	-24453.180000	-18086.940000	-2556.045000	8058.420000	5.854852	3.108618	1.782146	1.316680	0.003098	-2.261689	-5.974169	2.559742	4.410140	5.005280	0.564620	0.723082	0.007202	0.657774	-1.000000	-1.000000	-1.000000	-1.000000	-1.000000	-1.000000	-1.000000	85.379310	0.000000	-1.000000	-1.000000	597697.000000	1772894907.079170
-5468.490000	-8223.930000	4294.665000	-1634.445000	-24476.670000	-18115.830000	-2605.590000	8046.765000	-1.299819	-4.920974	-3.831044	-3.641109	-4.816890	-8.899219	-12.949051	1.788221	4.410140	5.005280	0.564620	0.723082	0.007202	0.657774	-1.000000	-1.000000	-1.000000	-1.000000	-1.000000	-1.000000	-1.000000	85.379310	0.000000	-1.000000	-1.000000	597698.000000	1772894907.079180
-5493.555000	-8244.315000	4270.275000	-1660.095000	-24501.060000	-18140.895000	-2639.520000	8033.760000	-4.500625	-8.880436	-6.835072	-6.684077	-7.554456	-12.723243	-18.715234	-0.168879	4.410140	5.005280	0.564620	0.723082	0.007202	0.657774	-1.000000	-1.000000	-1.000000	-1.000000	-1.000000	-1.000000	-1.000000	85.379310	0.000000	-1.000000	-1.000000	597699.000000	1772894907.085193
-5528.925000	-8247.915000	4259.610000	-1675.485000	-24514.920000	-18144.855000	-2608.695000	8031.060000	-5.137191	-9.767348	-8.367537	-8.713074	-9.054994	-14.320753	-22.256502	-2.433305	4.410140	5.005280	0.564620	0.723082	0.007202	0.657774	-1.000000	-1.000000	-1.000000	-1.000000	-1.000000	-1.000000	-1.000000	85.379310	0.000000	-1.000000	-1.000000	597700.000000	1772894907.085202
-5516.640000	-8240.850000	4259.070000	-1678.365000	-24518.610000	-18140.265000	-2560.365000	8036.145000	-6.309408	-8.179715	-8.279356	-9.136147	-8.799476	-12.441750	-18.487572	-3.296366	-3.555580	2.960440	-0.564620	0.719359	0.018799	0.659300	-1.000000	-1.000000	-1.000000	-1.000000	-1.000000	-1.000000	-1.000000	85.379310	0.000000	-1.000000	-1.000000	597701.000000	1772894907.087179
-5508.810000	-8241.660000	4260.105000	-1676.520000	-24518.070000	-18140.220000	-2551.365000	8034.120000	-7.491713	-4.495161	-6.051683	-7.026704	-6.097986	-6.276141	-4.304517	-1.589750	-3.555580	2.960440	-0.564620	0.719359	0.018799	0.659300	-1.000000	-1.000000	-1.000000	-1.000000	-1.000000	-1.000000	-1.000000	85.379310	0.000000	-1.000000	-1.000000	597702.000000	1772894907.087188
-5506.920000	-8236.665000	4269.645000	-1665.990000	-24505.740000	-18124.380000	-2537.055000	8033.130000	-5.980887	-0.230801	-2.356249	-2.859294	-1.656100	2.173455	14.858014	1.662166	-3.555580	2.960440	-0.564620	0.719359	0.018799	0.659300	-1.000000	-1.000000	-1.000000	-1.000000	-1.000000	-1.000000	-1.000000	85.379310	0.000000	-1.000000	-1.000000	597703.000000	1772894907.091178
-5501.025000	-8230.905000	4276.305000	-1660.500000	-24498.315000	-18116.460000	-2525.850000	8040.870000	-1.149136	3.191800	1.665916	1.897363	3.015105	9.439138	28.353381	4.008486	-3.555580	2.960440	-0.564620	0.719359	0.018799	0.659300	-1.000000	-1.000000	-1.000000	-1.000000	-1.000000	-1.000000	-1.000000	85.379310	0.000000	-1.000000	-1.000000	597704.000000	1772894907.091184
-5510.385000	-8238.555000	4272.390000	-1663.425000	-24500.970000	-18122.085000	-2538.765000	8048.700000	4.506879	4.847867	4.564501	5.242588	6.092936	12.603327	29.017083	4.008461	-3.555580	2.960440	-0.564620	0.719359	0.018799	0.659300	-1.000000	-1.000000	-1.000000	-1.000000	-1.000000	-1.000000	-1.000000	85.379310	0.000000	-1.000000	-1.000000	597705.000000	1772894907.095283
-5506.065000	-8240.985000	4266.855000	-1667.115000	-24505.515000	-18128.205000	-2564.730000	8052.885000	7.393649	4.127407	5.070806	5.851176	6.438071	10.831929	17.564920	2.254133	-3.555580	2.960440	-0.564620	0.719359	0.018799	0.659300	-1.000000	-1.000000	-1.000000	-1.000000	-1.000000	-1.000000	-1.000000	85.379310	0.000000	-1.000000	-1.000000	597706.000000	1772894907.095296
-5510.340000	-8260.110000	4246.335000	-1683.180000	-24520.815000	-18145.845000	-2587.680000	8050.005000	5.997530	1.801411	3.584088	4.527980	4.864784	5.997909	0.750227	0.357902	-3.555580	2.960440	-0.564620	0.719359	0.018799	0.659300	-1.000000	-1.000000	-1.000000	-1.000000	-1.000000	-1.000000	-1.000000	85.379310	0.000000	-1.000000	-1.000000	597707.000000	1772894907.099665
-5514.345000	-8262.720000	4256.955000	-1668.375000	-24506.190000	-18134.460000	-2577.420000	8037.540000	2.434815	-0.199477	2.133172	3.579606	3.557815	1.235845	-13.540476	-0.729326	-3.555580	2.960440	-0.564620	0.719359	0.018799	0.659300	-1.000000	-1.000000	-1.000000	-1.000000	-1.000000	-1.000000	-1.000000	85.379310	0.000000	-1.000000	-1.000000	597708.000000	1772894907.099673
-5500.035000	-8260.650000	4267.215000	-1655.280000	-24488.100000	-18114.930000	-2554.470000	8039.385000	0.360466	-0.485504	2.695748	4.835261	4.346516	-0.953882	-20.409881	-1.312326	-3.555580	2.960440	-0.564620	0.719359	0.018799	0.659300	-1.000000	-1.000000	-1.000000	-1.000000	-1.000000	-1.000000	-1.000000	85.379310	0.000000	-1.000000	-1.000000	597709.000000	1772894907.103346
-5505.615000	-8241.975000	4279.230000	-1647.765000	-24482.250000	-18106.290000	-2537.550000	8042.535000	0.988339	0.889380	5.096823	7.517308	6.723382	-0.203809	-19.208616	-1.831047	-3.555580	2.960440	-0.564620	0.719359	0.018799	0.659300	-1.000000	-1.000000	-1.000000	-1.000000	-1.000000	-1.000000	-1.000000	85.379310	0.000000	-1.000000	-1.000000	597710.000000	1772894907.103355
-5517.090000	-8241.480000	4266.360000	-1664.685000	-24499.260000	-18119.925000	-2541.780000	8034.480000	1.856826	2.773690	6.512965	8.014809	7.257037	1.068326	-12.353800	-2.182394	-11.017720	1.297100	-1.709120	0.717466	0.022888	0.658873	-1.000000	-1.000000	-1.000000	-1.000000	-1.000000	-1.000000	-1.000000	85.379310	0.000000	-1.000000	-1.000000	597711.000000	1772894907.107171
-5545.800000	-8255.475000	4251.015000	-1681.965000	-24517.620000	-18135.765000	-2559.645000	8025.165000	-0.053484	3.436324	3.772779	2.980015	2.393794	-0.591638	-4.001965	-2.474710	-11.017720	1.297100	-1.709120	0.717466	0.022888	0.658873	-1.000000	-1.000000	-1.000000	-1.000000	-1.000000	-1.000000	-1.000000	85.379310	0.000000	-1.000000	-1.000000	597712.000000	1772894907.107177
-5540.355000	-8266.140000	4242.195000	-1688.265000	-24523.920000	-18141.570000	-2570.805000	8032.905000	-4.801265	1.336996	-3.492132	-6.932060	-7.478538	-6.099662	1.734452	-2.997500	-11.017720	1.297100	-1.709120	0.717466	0.022888	0.658873	-1.000000	-1.000000	-1.000000	-1.000000	-1.000000	-1.000000	-1.000000	85.379310	0.000000	-1.000000	-1.000000	597713.000000	1772894907.111234
-5521.455000	-8280.180000	4226.220000	-1704.645000	-24541.965000	-18163.935000	-2594.160000	8040.555000	-8.745782	-3.194624	-11.768708	-16.602966	-17.210151	-12.214623	3.756367	-3.169531	-11.017720	1.297100	-1.709120	0.717466	0.022888	0.658873	-1.000000	-1.000000	-1.000000	-1.000000	-1.000000	-1.000000	-1.000000	85.379310	0.000000	-1.000000	-1.000000	597714.000000	1772894907.111239
-5491.305000	-8273.295000	4221.630000	-1713.060000	-24550.650000	-18176.265000	-2603.430000	8045.910000	-7.480062	-7.232151	-15.847770	-20.046787	-20.587667	-14.252984	4.365980	-1.821381	-11.017720	1.297100	-1.709120	0.717466	0.022888	0.658873	-1.000000	-1.000000	-1.000000	-1.000000	-1.000000	-1.000000	-1.000000	85.379310	0.000000	-1.000000	-1.000000	597715.000000	1772894907.115262
-5501.565000	-8264.160000	4231.755000	-1701.090000	-24535.260000	-18156.915000	-2580.840000	8046.045000	-0.329864	-7.020746	-12.229827	-14.350334	-14.534710	-9.519822	6.329551	1.343994	-11.017720	1.297100	-1.709120	0.717466	0.022888	0.658873	-1.000000	-1.000000	-1.000000	-1.000000	-1.000000	-1.000000	-1.000000	85.379310	0.000000	-1.000000	-1.000000	597716.000000	1772894907.115269
-5494.995000	-8244.090000	4262.895000	-1673.460000	-24509.700000	-18131.670000	-2555.955000	8045.055000	8.437837	-1.266019	-1.471490	-1.233926	-0.855038	1.163197	9.932154	5.085569	-11.017720	1.297100	-1.709120	0.717466	0.022888	0.658873	-1.000000	-1.000000	-1.000000	-1.000000	-1.000000	-1.000000	-1.000000	85.379310	0.000000	-1.000000	-1.000000	597717.000000	1772894907.119437
-5513.850000	-8253.990000	4260.915000	-1673.910000	-24514.515000	-18135.630000	-2540.880000	8041.140000	12.790168	6.715452	11.330661	13.330290	14.049622	12.881890	12.263050	7.168167	-11.017720	1.297100	-1.709120	0.717466	0.022888	0.658873	-1.000000	-1.000000	-1.000000	-1.000000	-1.000000	-1.000000	-1.000000	85.379310	0.000000	-1.000000	-1.000000	597718.000000	1772894907.119455
-5549.265000	-8262.090000	4253.895000	-1669.545000	-24506.190000	-18126.945000	-2535.390000	8036.370000	9.071907	10.822359	18.898188	21.974548	22.516325	19.116288	10.072173	5.895545	-11.017720	1.297100	-1.709120	0.717466	0.022888	0.658873	-1.000000	-1.000000	-1.000000	-1.000000	-1.000000	-1.000000	-1.000000	85.379310	0.000000	-1.000000	-1.000000	597719.000000	1772894907.123232
-5526.090000	-8241.885000	4269.780000	-1660.140000	-24500.565000	-18124.920000	-2550.015000	8037.900000	-0.693715	7.951494	17.165752	20.950292	21.092284	16.941013	3.211258	1.794330	-11.017720	1.297100	-1.709120	0.717466	0.022888	0.658873	-1.000000	-1.000000	-1.000000	-1.000000	-1.000000	-1.000000	-1.000000	85.379310	0.000000	-1.000000	-1.000000	597720.000000	1772894907.123239
-5495.985000	-8236.395000	4272.075000	-1660.410000	-24502.230000	-18130.770000	-2566.305000	8048.205000	-8.832001	1.264592	8.518065	12.263604	12.140192	8.538631	-5.507040	-2.563632	-4.501700	2.685760	-1.724380	0.720640	0.018860	0.655516	-1.000000	-1.000000	-1.000000	-1.000000	-1.000000	-1.000000	-1.000000	85.517241	0.000000	-1.000000	-1.000000	597721.000000	1772894907.127189
-5492.475000	-8247.015000	4261.680000	-1668.015000	-24506.865000	-18135.540000	-2574.810000	8057.520000	-9.012223	-4.061997	-1.575486	0.735600	0.574008	-1.647270	-12.235921	-4.788637	-4.501700	2.685760	-1.724380	0.720640	0.018860	0.655516	-1.000000	-1.000000	-1.000000	-1.000000	-1.000000	-1.000000	-1.000000	85.517241	0.000000	-1.000000	-1.000000	597722.000000	1772894907.127194
-5489.280000	-8240.670000	4267.845000	-1663.110000	-24504.255000	-18133.065000	-2576.070000	8056.620000	-2.995338	-5.822970	-8.867683	-8.969778	-8.879375	-9.165422	-13.520776	-4.455647	-4.501700	2.685760	-1.724380	0.720640	0.018860	0.655516	-1.000000	-1.000000	-1.000000	-1.000000	-1.000000	-1.000000	-1.000000	85.517241	0.000000	-1.000000	-1.000000	597723.000000	1772894907.131260
-5507.100000	-8237.880000	4272.120000	-1659.420000	-24501.195000	-18129.690000	-2569.365000	8050.320000	2.343563	-4.643567	-11.196011	-13.479681	-13.004922	-11.169775	-8.383701	-2.834922	-4.501700	2.685760	-1.724380	0.720640	0.018860	0.655516	-1.000000	-1.000000	-1.000000	-1.000000	-1.000000	-1.000000	-1.000000	85.517241	0.000000	-1.000000	-1.000000	597724.000000	1772894907.131267
-5521.365000	-8235.630000	4279.815000	-1650.915000	-24490.755000	-18117.630000	-2545.785000	8042.355000	2.563245	-2.328761	-8.958351	-12.277506	-11.661562	-8.303810	0.155142	-1.409355	-4.501700	2.685760	-1.724380	0.720640	0.018860	0.655516	-1.000000	-1.000000	-1.000000	-1.000000	-1.000000	-1.000000	-1.000000	85.517241	0.000000	-1.000000	-1.000000	597725.000000	1772894907.135230
-5492.700000	-8234.730000	4282.065000	-1649.205000	-24487.335000	-18106.245000	-2514.555000	8030.745000	-0.970345	-0.805442	-5.022337	-7.995507	-7.537627	-3.884104	7.183844	-0.892609	-4.501700	2.685760	-1.724380	0.720640	0.018860	0.655516	-1.000000	-1.000000	-1.000000	-1.000000	-1.000000	-1.000000	-1.000000	85.517241	0.000000	-1.000000	-1.000000	597726.000000	1772894907.135240
-5481.630000	-8243.730000	4263.705000	-1671.750000	-24509.880000	-18124.785000	-2518.425000	8037.045000	-3.053929	-0.859212	-2.339535	-4.075354	-3.784916	-0.912412	9.421631	-1.002642	-4.501700	2.685760	-1.724380	0.720640	0.018860	0.655516	-1.000000	-1.000000	-1.000000	-1.000000	-1.000000	-1.000000	-1.000000	85.517241	0.000000	-1.000000	-1.000000	597727.000000	1772894907.139304
-5522.625000	-8245.350000	4256.820000	-1681.290000	-24519.915000	-18139.410000	-2546.415000	8039.880000	-0.702888	-1.884433	-1.873935	-2.459101	-2.243379	-0.739456	6.145357	-0.599160	-4.501700	2.685760	-1.724380	0.720640	0.018860	0.655516	-1.000000	-1.000000	-1.000000	-1.000000	-1.000000	-1.000000	-1.000000	85.517241	0.000000	-1.000000	-1.000000	597728.000000	1772894907.139308
-5510.745000	-8247.330000	4254.255000	-1682.190000	-24520.545000	-18142.470000	-2562.570000	8045.415000	2.939301	-2.888934	-2.640198	-2.630669	-2.532312	-2.712311	-0.946990	1.070578	-4.501700	2.685760	-1.724380	0.720640	0.018860	0.655516	-1.000000	-1.000000	-1.000000	-1.000000	-1.000000	-1.000000	-1.000000	85.517241	0.000000	-1.000000	-1.000000	597729.000000	1772894907.143274
-5495.580000	-8246.880000	4257.720000	-1676.565000	-24514.605000	-18137.340000	-2561.580000	8056.485000	3.508563	-2.949659	-2.661889	-2.180081	-2.278997	-4.094767	-7.633601	3.228227	-4.501700	2.685760	-1.724380	0.720640	0.018860	0.655516	-1.000000	-1.000000	-1.000000	-1.000000	-1.000000	-1.000000	-1.000000	85.517241	0.000000	-1.000000	-1.000000	597730.000000	1772894907.143279
-5511.870000	-8259.705000	4247.010000	-1686.645000	-24523.785000	-18145.080000	-2559.150000	8057.430000	0.737360	-1.408221	-0.434826	0.755307	0.441703	-2.317654	-9.314644	4.352387	-0.976640	2.868880	-1.678600	0.720579	0.011658	0.651671	-1.000000	-1.000000	-1.000000	-1.000000	-1.000000	-1.000000	-1.000000	85.517241	0.000000	-1.000000	-1.000000	597731.000000	1772894907.147278
-5512.230000	-8245.440000	4262.310000	-1670.940000	-24507.765000	-18127.935000	-2546.865000	8048.340000	-3.118545	1.408848	3.676526	5.552642	5.099824	2.530598	-4.602229	3.521153	-0.976640	2.868880	-1.678600	0.720579	0.011658	0.651671	-1.000000	-1.000000	-1.000000	-1.000000	-1.000000	-1.000000	-1.000000	85.517241	0.000000	-1.000000	-1.000000	597732.000000	1772894907.147282
-5494.905000	-8216.775000	4293.630000	-1640.745000	-24478.110000	-18098.640000	-2530.755000	8040.105000	-5.055070	4.710828	8.101734	10.180627	9.721121	8.262660	3.458263	0.961984	-0.976640	2.868880	-1.678600	0.720579	0.011658	0.651671	-1.000000	-1.000000	-1.000000	-1.000000	-1.000000	-1.000000	-1.000000	85.517241	0.000000	-1.000000	-1.000000	597733.000000	1772894907.151383
-5480.910000	-8190.045000	4322.070000	-1611.135000	-24448.905000	-18074.520000	-2523.240000	8025.165000	-2.588717	8.059567	11.423133	12.985219	12.543429	12.254787	9.354856	-2.122824	-0.976640	2.868880	-1.678600	0.720579	0.011658	0.651671	-1.000000	-1.000000	-1.000000	-1.000000	-1.000000	-1.000000	-1.000000	85.517241	0.000000	-1.000000	-1.000000	597734.000000	1772894907.151391
-5473.485000	-8182.620000	4330.035000	-1601.370000	-24441.030000	-18080.280000	-2555.055000	8015.760000	3.057475	10.486676	12.354373	12.919358	12.396321	12.247530	8.445143	-4.403741	-0.976640	2.868880	-1.678600	0.720579	0.011658	0.651671	-1.000000	-1.000000	-1.000000	-1.000000	-1.000000	-1.000000	-1.000000	85.517241	0.000000	-1.000000	-1.000000	597735.000000	1772894907.155349
-5476.230000	-8192.385000	4321.260000	-1610.100000	-24454.710000	-18106.785000	-2606.895000	8013.870000	7.795227	9.993258	9.772625	9.409854	8.704275	7.191764	0.025337	-5.121601	-0.976640	2.868880	-1.678600	0.720579	0.011658	0.651671	-1.000000	-1.000000	-1.000000	-1.000000	-1.000000	-1.000000	-1.000000	85.517241	0.000000	-1.000000	-1.000000	597736.000000	1772894907.155356
-5475.060000	-8210.115000	4302.360000	-1629.585000	-24476.445000	-18130.140000	-2625.660000	8020.935000	8.975855	4.813203	3.213031	2.354421	1.442008	-1.906895	-11.172367	-3.986197	-0.976640	2.868880	-1.678600	0.720579	0.011658	0.651671	-1.000000	-1.000000	-1.000000	-1.000000	-1.000000	-1.000000	-1.000000	85.517241	0.000000	-1.000000	-1.000000	597737.000000	1772894907.159389
-5490.495000	-8242.920000	4270.410000	-1658.970000	-24495.750000	-18132.570000	-2580.390000	8026.830000	5.879587	-4.761233	-6.583184	-7.511370	-8.302483	-11.680410	-16.635848	-1.205666	-0.976640	2.868880	-1.678600	0.720579	0.011658	0.651671	-1.000000	-1.000000	-1.000000	-1.000000	-1.000000	-1.000000	-1.000000	85.517241	0.000000	-1.000000	-1.000000	597738.000000	1772894907.159397
-5512.230000	-8256.105000	4255.155000	-1675.395000	-24509.970000	-18133.290000	-2542.860000	8024.355000	-1.378795	-15.262710	-16.710391	-17.520061	-17.378746	-17.365241	-9.842575	2.020352	-0.976640	2.868880	-1.678600	0.720579	0.011658	0.651671	-1.000000	-1.000000	-1.000000	-1.000000	-1.000000	-1.000000	-1.000000	85.517241	0.000000	-1.000000	-1.000000	597739.000000	1772894907.163258
-5522.355000	-8248.185000	4260.510000	-1671.570000	-24507.945000	-18126.045000	-2527.515000	8017.065000	-10.256204	-20.983203	-22.200095	-22.971106	-21.338244	-15.621551	7.123341	4.006737	-0.976640	2.868880	-1.678600	0.720579	0.011658	0.651671	-1.000000	-1.000000	-1.000000	-1.000000	-1.000000	-1.000000	-1.000000	85.517241	0.000000	-1.000000	-1.000000	597740.000000	1772894907.163288
-5523.390000	-8253.045000	4258.755000	-1673.730000	-24511.275000	-18130.995000	-2540.880000	8009.505000	-15.793703	-18.069009	-19.375592	-20.241594	-17.641569	-7.484183	23.250242	4.023851	-0.488320	1.403920	-1.526000	0.716002	0.008606	0.655028	-1.000000	-1.000000	-1.000000	-1.000000	-1.000000	-1.000000	-1.000000	85.517241	0.000000	-1.000000	-1.000000	597741.000000	1772894907.167302
-5523.525000	-8249.490000	4263.885000	-1668.915000	-24504.930000	-18126.900000	-2538.540000	8008.605000	-14.441728	-8.263046	-9.606693	-10.499400	-8.245539	1.829035	26.783236	2.816678	-0.488320	1.403920	-1.526000	0.716002	0.008606	0.655028	-1.000000	-1.000000	-1.000000	-1.000000	-1.000000	-1.000000	-1.000000	85.517241	0.000000	-1.000000	-1.000000	597742.000000	1772894907.167310
-5497.920000	-8240.355000	4270.185000	-1661.580000	-24495.615000	-18117.405000	-2530.530000	8018.280000	-6.700890	3.034591	2.002987	1.362983	2.225374	7.392781	15.016237	1.933459	-0.488320	1.403920	-1.526000	0.716002	0.008606	0.655028	-1.000000	-1.000000	-1.000000	-1.000000	-1.000000	-1.000000	-1.000000	85.517241	0.000000	-1.000000	-1.000000	597743.000000	1772894907.172694
-5498.055000	-8242.965000	4268.655000	-1662.840000	-24498.585000	-18124.200000	-2549.160000	8020.035000	3.990397	11.512616	11.113751	11.014061	10.368153	8.600511	-3.774571	2.329456	-0.488320	1.403920	-1.526000	0.716002	0.008606	0.655028	-1.000000	-1.000000	-1.000000	-1.000000	-1.000000	-1.000000	-1.000000	85.517241	0.000000	-1.000000	-1.000000	597744.000000	1772894907.172711
-5486.490000	-8227.305000	4288.410000	-1642.230000	-24480.315000	-18109.845000	-2556.180000	8027.235000	13.435053	15.796309	16.322636	16.883112	15.355171	8.240548	-17.729868	3.222317	-0.488320	1.403920	-1.526000	0.716002	0.008606	0.655028	-1.000000	-1.000000	-1.000000	-1.000000	-1.000000	-1.000000	-1.000000	85.517241	0.000000	-1.000000	-1.000000	597745.000000	1772894907.175260
-5486.445000	-8222.310000	4294.035000	-1636.110000	-24476.310000	-18109.125000	-2580.300000	8027.190000	18.089678	16.608842	18.279914	19.389706	17.690522	8.701828	-20.717616	2.819452	-0.488320	1.403920	-1.526000	0.716002	0.008606	0.655028	-1.000000	-1.000000	-1.000000	-1.000000	-1.000000	-1.000000	-1.000000	85.517241	0.000000	-1.000000	-1.000000	597746.000000	1772894907.175265
-5498.865000	-8223.300000	4292.325000	-1638.270000	-24480.405000	-18117.630000	-2599.515000	8024.355000	16.102683	15.016787	17.557022	18.837897	17.204111	9.201473	-15.874772	0.096513	-0.488320	1.403920	-1.526000	0.716002	0.008606	0.655028	-1.000000	-1.000000	-1.000000	-1.000000	-1.000000	-1.000000	-1.000000	85.517241	0.000000	-1.000000	-1.000000	597747.000000	1772894907.179211
-5493.780000	-8223.795000	4290.480000	-1638.855000	-24479.055000	-18115.920000	-2600.100000	8017.470000	8.532814	11.044921	13.532778	14.484442	12.830701	6.989062	-10.109559	-4.149455	-0.488320	1.403920	-1.526000	0.716002	0.008606	0.655028	-1.000000	-1.000000	-1.000000	-1.000000	-1.000000	-1.000000	-1.000000	85.517241	0.000000	-1.000000	-1.000000	597748.000000	1772894907.179218
-5469.795000	-8223.705000	4278.645000	-1656.090000	-24497.370000	-18129.510000	-2584.035000	8024.355000	-0.466080	4.177318	5.414496	5.704761	4.291388	0.974777	-5.940891	-7.453211	-0.488320	1.403920	-1.526000	0.716002	0.008606	0.655028	-1.000000	-1.000000	-1.000000	-1.000000	-1.000000	-1.000000	-1.000000	85.517241	0.000000	-1.000000	-1.000000	597749.000000	1772894907.187465
-5473.170000	-8240.040000	4262.715000	-1673.460000	-24510.105000	-18132.975000	-2543.310000	8032.230000	-6.543329	-5.040408	-6.030703	-6.512391	-6.973690	-7.080660	-0.606270	-7.230784	-0.488320	1.403920	-1.526000	0.716002	0.008606	0.655028	-1.000000	-1.000000	-1.000000	-1.000000	-1.000000	-1.000000	-1.000000	85.517241	0.000000	-1.000000	-1.000000	597750.000000	1772894907.187475
-5505.480000	-8271.000000	4239.495000	-1691.055000	-24521.805000	-18134.640000	-2515.365000	8023.005000	-9.206124	-14.706930	-17.824627	-18.886923	-17.776942	-13.837640	8.177244	-3.232578	-0.640920	0.412020	-3.891300	0.716246	0.009399	0.656981	-1.000000	-1.000000	-1.000000	-1.000000	-1.000000	-1.000000	-1.000000	85.517241	0.000000	-1.000000	-1.000000	597751.000000	1772894907.187484
-5505.885000	-8261.055000	4252.635000	-1678.320000	-24510.870000	-18127.755000	-2515.590000	8015.175000	-11.152193	-21.748487	-25.253108	-26.280304	-23.631646	-15.914909	17.842814	1.629537	-0.640920	0.412020	-3.891300	0.716246	0.009399	0.656981	-1.000000	-1.000000	-1.000000	-1.000000	-1.000000	-1.000000	-1.000000	85.517241	0.000000	-1.000000	-1.000000	597752.000000	1772894907.187488
-5503.815000	-8243.460000	4264.290000	-1667.970000	-24502.320000	-18121.995000	-2523.555000	8015.085000	-12.928905	-21.915856	-23.621976	-24.000082	-20.723240	-11.473402	22.857109	3.954919	-0.640920	0.412020	-3.891300	0.716246	0.009399	0.656981	-1.000000	-1.000000	-1.000000	-1.000000	-1.000000	-1.000000	-1.000000	85.517241	0.000000	-1.000000	-1.000000	597753.000000	1772894907.191461
-5505.120000	-8231.445000	4272.300000	-1660.995000	-24496.830000	-18121.680000	-2542.725000	8011.890000	-11.879765	-12.891551	-12.129259	-11.795226	-9.259631	-1.947847	19.490909	2.852478	-0.640920	0.412020	-3.891300	0.716246	0.009399	0.656981	-1.000000	-1.000000	-1.000000	-1.000000	-1.000000	-1.000000	-1.000000	85.517241	0.000000	-1.000000	-1.000000	597754.000000	1772894907.191470
-5476.590000	-8217.045000	4289.760000	-1641.420000	-24477.975000	-18107.730000	-2548.755000	8020.710000	-6.023122	2.300647	4.441980	5.081379	5.819641	8.258028	8.258927	0.031927	-0.640920	0.412020	-3.891300	0.716246	0.009399	0.656981	-1.000000	-1.000000	-1.000000	-1.000000	-1.000000	-1.000000	-1.000000	85.517241	0.000000	-1.000000	-1.000000	597755.000000	1772894907.195290
-5480.955000	-8216.415000	4296.015000	-1633.095000	-24469.920000	-18100.665000	-2543.445000	8028.945000	3.831114	16.809992	18.980567	19.537287	18.228711	14.847071	-6.206202	-1.769052	-0.640920	0.412020	-3.891300	0.716246	0.009399	0.656981	-1.000000	-1.000000	-1.000000	-1.000000	-1.000000	-1.000000	-1.000000	85.517241	0.000000	-1.000000	-1.000000	597756.000000	1772894907.195298
-5497.740000	-8225.415000	4292.640000	-1633.950000	-24469.830000	-18098.145000	-2530.260000	8021.970000	13.236914	23.780301	25.600635	26.032294	23.315753	15.679280	-17.456528	-0.957970	-0.640920	0.412020	-3.891300	0.716246	0.009399	0.656981	-1.000000	-1.000000	-1.000000	-1.000000	-1.000000	-1.000000	-1.000000	85.517241	0.000000	-1.000000	-1.000000	597757.000000	1772894907.199390
-5503.860000	-8230.230000	4291.065000	-1634.310000	-24468.840000	-18096.930000	-2519.685000	8011.125000	16.053638	19.940794	21.876604	22.436851	19.532260	10.925415	-21.142580	1.259916	-0.640920	0.412020	-3.891300	0.716246	0.009399	0.656981	-1.000000	-1.000000	-1.000000	-1.000000	-1.000000	-1.000000	-1.000000	85.517241	0.000000	-1.000000	-1.000000	597758.000000	1772894907.199397
-5499.945000	-8225.280000	4291.380000	-1635.390000	-24469.380000	-18096.120000	-2510.370000	7996.995000	10.598209	8.152742	10.318905	11.136675	9.155730	2.784936	-17.502803	2.181337	-0.640920	0.412020	-3.891300	0.716246	0.009399	0.656981	-1.000000	-1.000000	-1.000000	-1.000000	-1.000000	-1.000000	-1.000000	85.517241	0.000000	-1.000000	-1.000000	597759.000000	1772894907.203408
-5494.950000	-8223.885000	4287.780000	-1647.990000	-24488.055000	-18118.845000	-2534.715000	7989.030000	1.692490	-4.421795	-3.187016	-2.647016	-3.387433	-5.877978	-10.344691	0.682246	-0.640920	0.412020	-3.891300	0.716246	0.009399	0.656981	-1.000000	-1.000000	-1.000000	-1.000000	-1.000000	-1.000000	-1.000000	85.517241	0.000000	-1.000000	-1.000000	597760.000000	1772894907.203414
-5478.390000	-8229.465000	4274.505000	-1663.515000	-24504.705000	-18133.470000	-2551.005000	7989.930000	-4.503142	-12.119679	-13.501035	-14.252823	-14.201659	-12.860314	-3.570223	-1.773582	-1.907500	-0.061040	-3.555580	0.720335	0.015137	0.653502	-1.000000	-1.000000	-1.000000	-1.000000	-1.000000	-1.000000	-1.000000	85.517241	0.000000	-1.000000	-1.000000	597761.000000	1772894907.207199
-5449.050000	-8226.585000	4279.725000	-1649.565000	-24484.005000	-18107.820000	-2529.495000	8005.545000	-5.109184	-14.020921	-18.396132	-20.687120	-20.210264	-15.915559	1.998036	-2.739918	-1.907500	-0.061040	-3.555580	0.720335	0.015137	0.653502	-1.000000	-1.000000	-1.000000	-1.000000	-1.000000	-1.000000	-1.000000	85.517241	0.000000	-1.000000	-1.000000	597762.000000	1772894907.207206
-5431.140000	-8215.605000	4295.205000	-1629.090000	-24461.415000	-18091.665000	-2521.215000	8010.765000	-1.123540	-11.751756	-17.297993	-19.807168	-18.642131	-12.629767	8.027281	-0.944932	-1.907500	-0.061040	-3.555580	0.720335	0.015137	0.653502	-1.000000	-1.000000	-1.000000	-1.000000	-1.000000	-1.000000	-1.000000	85.517241	0.000000	-1.000000	-1.000000	597763.000000	1772894907.212605
-5452.380000	-8220.690000	4287.735000	-1641.690000	-24478.065000	-18108.855000	-2533.905000	8015.265000	3.277656	-6.934439	-10.835327	-11.793275	-9.691279	-3.739031	14.188651	2.474400	-1.907500	-0.061040	-3.555580	0.720335	0.015137	0.653502	-1.000000	-1.000000	-1.000000	-1.000000	-1.000000	-1.000000	-1.000000	85.517241	0.000000	-1.000000	-1.000000	597764.000000	1772894907.212664
-5505.705000	-8228.565000	4279.815000	-1653.660000	-24492.105000	-18119.565000	-2535.255000	8015.310000	2.914960	-1.322980	-1.949604	-0.953834	1.465659	5.412820	16.546586	4.959861	-1.907500	-0.061040	-3.555580	0.720335	0.015137	0.653502	-1.000000	-1.000000	-1.000000	-1.000000	-1.000000	-1.000000	-1.000000	85.517241	0.000000	-1.000000	-1.000000	597765.000000	1772894907.215132
-5498.235000	-8240.805000	4267.170000	-1664.955000	-24502.860000	-18125.145000	-2543.535000	8011.845000	-3.681711	3.109198	5.344159	7.151494	8.678242	9.551343	11.859929	4.899343	-1.907500	-0.061040	-3.555580	0.720335	0.015137	0.653502	-1.000000	-1.000000	-1.000000	-1.000000	-1.000000	-1.000000	-1.000000	85.517241	0.000000	-1.000000	-1.000000	597766.000000	1772894907.215139
-5483.655000	-8235.270000	4278.735000	-1652.175000	-24490.080000	-18111.015000	-2550.510000	8000.865000	-11.421016	5.293306	8.865879	10.183196	10.008945	8.110086	1.247672	2.508623	-1.907500	-0.061040	-3.555580	0.720335	0.015137	0.653502	-1.000000	-1.000000	-1.000000	-1.000000	-1.000000	-1.000000	-1.000000	85.517241	0.000000	-1.000000	-1.000000	597767.000000	1772894907.220978
-5474.070000	-8233.515000	4280.490000	-1653.300000	-24496.245000	-18118.440000	-2561.895000	7986.330000	-13.101505	5.644768	9.195857	9.586914	7.796183	4.322171	-10.419425	-0.986033	-1.907500	-0.061040	-3.555580	0.720335	0.015137	0.653502	-1.000000	-1.000000	-1.000000	-1.000000	-1.000000	-1.000000	-1.000000	85.517241	0.000000	-1.000000	-1.000000	597768.000000	1772894907.220986
-5476.455000	-8222.895000	4282.740000	-1655.370000	-24501.780000	-18127.350000	-2561.445000	7984.035000	-6.796875	5.231469	7.946463	7.739969	5.126085	1.413039	-16.929214	-4.136631	-1.907500	-0.061040	-3.555580	0.720335	0.015137	0.653502	-1.000000	-1.000000	-1.000000	-1.000000	-1.000000	-1.000000	-1.000000	85.517241	0.000000	-1.000000	-1.000000	597769.000000	1772894907.223200
-5483.295000	-8205.570000	4295.880000	-1642.230000	-24487.245000	-18112.815000	-2547.585000	7998.480000	2.658858	4.829448	6.136106	5.811628	3.467996	0.509784	-14.149891	-5.571732	-1.907500	-0.061040	-3.555580	0.720335	0.015137	0.653502	-1.000000	-1.000000	-1.000000	-1.000000	-1.000000	-1.000000	-1.000000	85.517241	0.000000	-1.000000	-1.000000	597770.000000	1772894907.223206
-5504.355000	-8236.755000	4268.970000	-1661.490000	-24497.415000	-18118.170000	-2552.670000	8015.985000	8.299712	3.983667	3.591795	3.375676	2.295233	0.662065	-3.661527	-4.407949	-3.448760	3.189340	-3.769220	0.723814	0.017334	0.647398	-1.000000	-1.000000	-1.000000	-1.000000	-1.000000	-1.000000	-1.000000	85.517241	0.000000	-1.000000	-1.000000	597771.000000	1772894907.227217
-5509.170000	-8238.915000	4268.970000	-1658.475000	-24493.005000	-18121.455000	-2552.580000	8024.985000	6.767787	1.011593	-0.712752	-0.706086	0.077421	0.018638	7.896329	-0.977553	-3.448760	3.189340	-3.769220	0.723814	0.017334	0.647398	-1.000000	-1.000000	-1.000000	-1.000000	-1.000000	-1.000000	-1.000000	85.517241	0.000000	-1.000000	-1.000000	597772.000000	1772894907.227226
-5531.445000	-8225.145000	4288.860000	-1637.640000	-24475.635000	-18118.845000	-2541.465000	8020.980000	1.065810	-3.724595	-5.750864	-5.285458	-2.769822	-1.736225	14.405848	2.838809	-3.448760	3.189340	-3.769220	0.723814	0.017334	0.647398	-1.000000	-1.000000	-1.000000	-1.000000	-1.000000	-1.000000	-1.000000	85.517241	0.000000	-1.000000	-1.000000	597773.000000	1772894907.231233
-5512.545000	-8226.900000	4291.335000	-1634.985000	-24472.485000	-18109.170000	-2529.045000	8020.035000	-2.312325	-6.619393	-7.740905	-6.681340	-3.495731	-2.721141	14.177354	4.708947	-3.448760	3.189340	-3.769220	0.723814	0.017334	0.647398	-1.000000	-1.000000	-1.000000	-1.000000	-1.000000	-1.000000	-1.000000	85.517241	0.000000	-1.000000	-1.000000	597774.000000	1772894907.231241
-5477.445000	-8216.460000	4303.170000	-1622.565000	-24460.740000	-18094.230000	-2531.925000	8015.985000	0.606485	-5.040642	-4.638894	-3.329576	-0.982063	-1.385416	8.919949	3.780064	-3.448760	3.189340	-3.769220	0.723814	0.017334	0.647398	-1.000000	-1.000000	-1.000000	-1.000000	-1.000000	-1.000000	-1.000000	85.517241	0.000000	-1.000000	-1.000000	597775.000000	1772894907.235361
-5507.865000	-8210.070000	4313.925000	-1613.340000	-24453.495000	-18087.930000	-2537.010000	7998.615000	7.359986	-0.117583	1.365080	2.172203	2.603376	1.539585	1.312857	1.059645	-3.448760	3.189340	-3.769220	0.723814	0.017334	0.647398	-1.000000	-1.000000	-1.000000	-1.000000	-1.000000	-1.000000	-1.000000	85.517241	0.000000	-1.000000	-1.000000	597776.000000	1772894907.235368
-5520.600000	-8219.700000	4308.165000	-1619.325000	-24457.815000	-18087.345000	-2536.470000	7993.800000	10.878862	4.529313	6.104804	5.853921	4.373870	3.998795	-5.770674	-1.836736	-3.448760	3.189340	-3.769220	0.723814	0.017334	0.647398	-1.000000	-1.000000	-1.000000	-1.000000	-1.000000	-1.000000	-1.000000	85.517241	0.000000	-1.000000	-1.000000	597777.000000	1772894907.239642
-5496.120000	-8240.175000	4283.370000	-1639.170000	-24473.025000	-18099.090000	-2532.645000	8007.390000	7.109485	5.125778	6.162825	5.069325	2.830908	4.296679	-9.666939	-3.518810	-3.448760	3.189340	-3.769220	0.723814	0.017334	0.647398	-1.000000	-1.000000	-1.000000	-1.000000	-1.000000	-1.000000	-1.000000	85.517241	0.000000	-1.000000	-1.000000	597778.000000	1772894907.239650
-5472.855000	-8262.225000	4233.060000	-1697.760000	-24531.750000	-18144.630000	-2533.725000	8031.600000	-0.351978	0.361192	0.280366	-1.017113	-2.612300	0.961510	-9.494220	-3.137299	-3.448760	3.189340	-3.769220	0.723814	0.017334	0.647398	-1.000000	-1.000000	-1.000000	-1.000000	-1.000000	-1.000000	-1.000000	85.517241	0.000000	-1.000000	-1.000000	597779.000000	1772894907.243212
-5484.555000	-8270.595000	4222.485000	-1715.175000	-24552.315000	-18163.350000	-2539.800000	8042.355000	-5.405429	-6.746092	-9.156050	-10.655963	-11.216288	-6.349098	-6.589448	-0.918651	-3.448760	3.189340	-3.769220	0.723814	0.017334	0.647398	-1.000000	-1.000000	-1.000000	-1.000000	-1.000000	-1.000000	-1.000000	85.517241	0.000000	-1.000000	-1.000000	597780.000000	1772894907.243220
-5487.615000	-8265.015000	4237.110000	-1697.670000	-24538.140000	-18164.205000	-2555.370000	8045.370000	-6.000647	-10.768157	-15.950450	-18.185342	-18.435726	-13.987827	-3.148208	1.715846	-2.304260	6.851740	-4.028640	0.729734	0.011780	0.646544	-1.000000	-1.000000	-1.000000	-1.000000	-1.000000	-1.000000	-1.000000	85.517241	0.000000	-1.000000	-1.000000	597781.000000	1772894907.248809
-5493.240000	-8264.970000	4240.035000	-1694.295000	-24537.465000	-18175.410000	-2580.930000	8039.700000	-3.731863	-8.512424	-14.441104	-17.136375	-17.830727	-16.056313	-1.353617	3.071429	-2.304260	6.851740	-4.028640	0.729734	0.011780	0.646544	-1.000000	-1.000000	-1.000000	-1.000000	-1.000000	-1.000000	-1.000000	85.517241	0.000000	-1.000000	-1.000000	597782.000000	1772894907.248866
-5487.120000	-8248.095000	4259.205000	-1673.820000	-24517.530000	-18154.755000	-2563.740000	8033.670000	-1.286439	-0.999963	-4.363386	-6.162830	-7.313968	-9.999741	-1.881812	2.317467	-2.304260	6.851740	-4.028640	0.729734	0.011780	0.646544	-1.000000	-1.000000	-1.000000	-1.000000	-1.000000	-1.000000	-1.000000	85.517241	0.000000	-1.000000	-1.000000	597783.000000	1772894907.251177
-5480.370000	-8246.700000	4266.045000	-1664.280000	-24505.920000	-18141.930000	-2557.170000	8023.545000	-0.938829	7.911182	9.174075	9.572774	8.600324	1.681852	-2.295563	-0.015506	-2.304260	6.851740	-4.028640	0.729734	0.011780	0.646544	-1.000000	-1.000000	-1.000000	-1.000000	-1.000000	-1.000000	-1.000000	85.517241	0.000000	-1.000000	-1.000000	597784.000000	1772894907.251183
-5493.375000	-8253.135000	4260.285000	-1668.915000	-24507.990000	-18143.595000	-2560.230000	8017.965000	-2.402883	13.531538	19.015560	21.907628	21.969746	13.547213	0.294590	-2.297977	-2.304260	6.851740	-4.028640	0.729734	0.011780	0.646544	-1.000000	-1.000000	-1.000000	-1.000000	-1.000000	-1.000000	-1.000000	85.517241	0.000000	-1.000000	-1.000000	597785.000000	1772894907.255397
-5527.170000	-8256.105000	4256.640000	-1675.125000	-24516.720000	-18148.050000	-2567.250000	8014.365000	-4.009585	13.004252	20.292087	24.739209	26.280800	20.112334	5.235962	-3.136590	-2.304260	6.851740	-4.028640	0.729734	0.011780	0.646544	-1.000000	-1.000000	-1.000000	-1.000000	-1.000000	-1.000000	-1.000000	85.517241	0.000000	-1.000000	-1.000000	597786.000000	1772894907.255406
-5511.780000	-8262.045000	4248.225000	-1681.695000	-24521.310000	-18146.880000	-2568.240000	8020.620000	-5.446007	7.308273	13.592927	17.803612	20.298769	18.972840	9.020060	-2.725309	-2.304260	6.851740	-4.028640	0.729734	0.011780	0.646544	-1.000000	-1.000000	-1.000000	-1.000000	-1.000000	-1.000000	-1.000000	85.517241	0.000000	-1.000000	-1.000000	597787.000000	1772894907.259727
-5487.255000	-8268.525000	4239.225000	-1687.410000	-24525.045000	-18147.420000	-2565.180000	8034.255000	-5.787734	0.136513	3.850545	6.271129	8.530695	12.129745	9.078534	-2.126186	-2.304260	6.851740	-4.028640	0.729734	0.011780	0.646544	-1.000000	-1.000000	-1.000000	-1.000000	-1.000000	-1.000000	-1.000000	85.517241	0.000000	-1.000000	-1.000000	597788.000000	1772894907.259736
-5484.915000	-8257.455000	4251.420000	-1676.565000	-24514.290000	-18138.780000	-2557.800000	8043.885000	-2.541786	-4.963092	-4.034984	-3.797001	-2.660331	3.780222	5.993407	-1.493791	-2.304260	6.851740	-4.028640	0.729734	0.011780	0.646544	-1.000000	-1.000000	-1.000000	-1.000000	-1.000000	-1.000000	-1.000000	85.517241	0.000000	-1.000000	-1.000000	597789.000000	1772894907.263450
-5498.325000	-8255.790000	4253.445000	-1674.495000	-24513.120000	-18145.395000	-2573.100000	8042.310000	4.292863	-6.562075	-8.256454	-9.704315	-9.758711	-3.124564	2.118232	-0.144414	-2.304260	6.851740	-4.028640	0.729734	0.011780	0.646544	-1.000000	-1.000000	-1.000000	-1.000000	-1.000000	-1.000000	-1.000000	85.517241	0.000000	-1.000000	-1.000000	597790.000000	1772894907.263458
-5505.255000	-8254.755000	4258.395000	-1669.140000	-24507.315000	-18142.470000	-2576.430000	8037.405000	10.525498	-5.537799	-9.527847	-11.964123	-12.712571	-7.922318	-1.148976	1.951592	4.059160	7.630000	-2.899400	0.732847	0.006531	0.647948	-1.000000	-1.000000	-1.000000	-1.000000	-1.000000	-1.000000	-1.000000	85.517241	0.000000	-1.000000	-1.000000	597791.000000	1772894907.267306
-5501.745000	-8241.615000	4272.570000	-1654.560000	-24494.175000	-18127.620000	-2561.130000	8029.980000	11.502585	-3.688222	-8.963580	-11.704941	-12.632234	-10.886232	-3.682941	3.801863	4.059160	7.630000	-2.899400	0.732847	0.006531	0.647948	-1.000000	-1.000000	-1.000000	-1.000000	-1.000000	-1.000000	-1.000000	85.517241	0.000000	-1.000000	-1.000000	597792.000000	1772894907.267311
-5497.515000	-8236.395000	4277.970000	-1650.420000	-24491.340000	-18124.605000	-2560.365000	8025.165000	6.641642	-2.017462	-7.019398	-9.453542	-10.387666	-11.858644	-5.146639	4.442028	4.059160	7.630000	-2.899400	0.732847	0.006531	0.647948	-1.000000	-1.000000	-1.000000	-1.000000	-1.000000	-1.000000	-1.000000	85.517241	0.000000	-1.000000	-1.000000	597793.000000	1772894907.271279
-5502.015000	-8251.470000	4261.455000	-1667.250000	-24504.615000	-18134.910000	-2558.655000	8026.830000	-0.061204	-0.676363	-4.051391	-5.727826	-6.707000	-10.401236	-4.885359	3.751999	4.059160	7.630000	-2.899400	0.732847	0.006531	0.647948	-1.000000	-1.000000	-1.000000	-1.000000	-1.000000	-1.000000	-1.000000	85.517241	0.000000	-1.000000	-1.000000	597794.000000	1772894907.271289
-5504.580000	-8257.995000	4254.615000	-1674.135000	-24511.770000	-18142.245000	-2558.610000	8029.980000	-4.245393	0.005319	-1.019557	-1.676149	-2.566989	-6.844750	-2.976494	2.140541	4.059160	7.630000	-2.899400	0.732847	0.006531	0.647948	-1.000000	-1.000000	-1.000000	-1.000000	-1.000000	-1.000000	-1.000000	85.517241	0.000000	-1.000000	-1.000000	597795.000000	1772894907.275593
-5497.245000	-8247.915000	4265.370000	-1663.020000	-24502.725000	-18131.940000	-2546.370000	8032.365000	-5.109260	0.120183	1.609043	1.983867	1.403647	-2.109526	-0.358709	-0.159437	4.059160	7.630000	-2.899400	0.732847	0.006531	0.647948	-1.000000	-1.000000	-1.000000	-1.000000	-1.000000	-1.000000	-1.000000	85.517241	0.000000	-1.000000	-1.000000	597796.000000	1772894907.275611
-5485.140000	-8233.740000	4280.310000	-1647.315000	-24488.415000	-18120.060000	-2546.685000	8035.335000	-4.382200	0.853744	4.462333	5.601501	5.293102	3.131422	1.835943	-2.971425	4.059160	7.630000	-2.899400	0.732847	0.006531	0.647948	-1.000000	-1.000000	-1.000000	-1.000000	-1.000000	-1.000000	-1.000000	85.517241	0.000000	-1.000000	-1.000000	597797.000000	1772894907.279161
-5475.150000	-8224.155000	4289.310000	-1638.090000	-24479.550000	-18116.505000	-2570.580000	8032.005000	-2.895507	2.699741	7.199796	8.692038	8.491515	7.822255	2.439854	-5.465850	4.059160	7.630000	-2.899400	0.732847	0.006531	0.647948	-1.000000	-1.000000	-1.000000	-1.000000	-1.000000	-1.000000	-1.000000	85.517241	0.000000	-1.000000	-1.000000	597798.000000	1772894907.279171
-5481.090000	-8221.365000	4295.610000	-1629.090000	-24468.480000	-18106.245000	-2581.515000	8023.230000	-0.322917	4.330339	7.899804	9.366089	9.357167	10.270215	0.774051	-6.326224	4.059160	7.630000	-2.899400	0.732847	0.006531	0.647948	-1.000000	-1.000000	-1.000000	-1.000000	-1.000000	-1.000000	-1.000000	85.517241	0.000000	-1.000000	-1.000000	597799.000000	1772894907.283307
-5486.535000	-8235.090000	4277.970000	-1650.105000	-24491.565000	-18126.405000	-2590.695000	8018.640000	2.395273	3.791701	4.969393	6.099849	6.549055	8.952333	-2.420738	-4.784253	4.059160	7.630000	-2.899400	0.732847	0.006531	0.647948	-1.000000	-1.000000	-1.000000	-1.000000	-1.000000	-1.000000	-1.000000	85.517241	0.000000	-1.000000	-1.000000	597800.000000	1772894907.283314
-5481.540000	-8234.145000	4276.260000	-1654.920000	-24499.350000	-18129.510000	-2574.945000	8019.855000	3.158365	0.128912	-1.509683	-1.061834	-0.141629	3.181935	-5.225166	-1.114107	2.716280	6.073480	-1.724380	0.725645	0.012024	0.654478	-1.000000	-1.000000	-1.000000	-1.000000	-1.000000	-1.000000	-1.000000	85.517241	0.000000	-1.000000	-1.000000	597801.000000	1772894907.287343
-5479.290000	-8229.330000	4282.110000	-1648.665000	-24489.990000	-18114.525000	-2548.845000	8016.480000	1.509474	-4.965567	-8.663816	-9.149950	-8.135564	-4.812387	-5.098528	3.423874	2.716280	6.073480	-1.724380	0.725645	0.012024	0.654478	-1.000000	-1.000000	-1.000000	-1.000000	-1.000000	-1.000000	-1.000000	85.517241	0.000000	-1.000000	-1.000000	597802.000000	1772894907.287350
-5476.410000	-8234.460000	4274.010000	-1655.010000	-24493.860000	-18119.340000	-2537.685000	8018.235000	-0.705989	-7.738752	-11.792197	-12.969266	-12.247304	-9.870227	-0.513104	6.791411	2.716280	6.073480	-1.724380	0.725645	0.012024	0.654478	-1.000000	-1.000000	-1.000000	-1.000000	-1.000000	-1.000000	-1.000000	85.517241	0.000000	-1.000000	-1.000000	597803.000000	1772894907.294294
